Time (s),Acceleration x (m/s^2),Acceleration y (m/s^2),Acceleration z (m/s^2)
1.343908300E-2,-2.43E+00,2.182049990E0,9.268050194E0
1.739531400E-2,-3.22E+00,2.872050047E0,7.602000237E0
2.135108300E-2,-3.03E+00,2.776050091E0,7.812000275E0
2.530678500E-2,-3.03E+00,2.814000130E0,7.792950153E0
2.926247700E-2,-3.03E+00,2.794950247E0,7.831050396E0
3.321840100E-2,-2.95E+00,2.737950087E0,7.851000309E0
3.717464000E-2,-2.72E+00,2.431050062E0,7.927050591E0
4.113094800E-2,-2.72E+00,2.641950130E0,7.966050148E0
4.508756300E-2,-2.83E+00,2.814000130E0,7.945950508E0
4.904381800E-2,-2.85E+00,2.910000086E0,7.966050148E0
5.300028000E-2,-2.85E+00,2.910000086E0,7.945950508E0
5.695697200E-2,-2.91E+00,3.006000042E0,7.927050591E0
6.091346300E-2,-2.93E+00,3.121050119E0,7.945950508E0
6.486923200E-2,-3.03E+00,3.235950232E0,7.927050591E0
6.882500100E-2,-2.99E+00,3.255000114E0,7.870050430E0
7.278117400E-2,-2.97E+00,3.217050076E0,7.755000591E0
7.673755900E-2,-2.79E+00,3.139950037E0,7.717050552E0
8.069371200E-2,-2.70E+00,3.121050119E0,7.621050358E0
8.465034200E-2,-2.57E+00,3.082950115E0,7.582950592E0
8.860672600E-2,-2.51E+00,3.043950081E0,7.429050446E0
9.256303400E-2,-2.53E+00,3.006000042E0,7.353000164E0
9.651928900E-2,-2.49E+00,3.006000042E0,7.257000446E0
1.004760580E-1,-2.57E+00,3.063000202E0,7.180050373E0
1.044325970E-1,-2.62E+00,3.139950037E0,7.200000286E0
1.083889240E-1,-2.62E+00,3.217050076E0,7.141950130E0
1.123456170E-1,-2.62E+00,3.331050158E0,7.045950413E0
1.163019240E-1,-2.60E+00,3.427050114E0,7.123050213E0
1.202584050E-1,-2.55E+00,3.465000153E0,7.104000568E0
1.242146360E-1,-2.49E+00,3.465000153E0,7.084950447E0
1.281717130E-1,-2.45E+00,3.523050070E0,7.161000252E0
1.321287800E-1,-2.43E+00,3.541950226E0,7.180050373E0
1.360853180E-1,-2.53E+00,3.217050076E0,7.200000286E0
1.400412410E-1,-2.53E+00,3.217050076E0,7.141950130E0
1.439972550E-1,-2.49E+00,3.331050158E0,7.084950447E0
1.479534860E-1,-2.60E+00,3.351000071E0,7.180050373E0
1.519099470E-1,-2.68E+00,3.274050236E0,7.468050480E0
1.558663420E-1,-2.64E+00,3.235950232E0,7.563000202E0
1.598225730E-1,-2.89E+00,3.427050114E0,7.755000591E0
1.637784190E-1,-3.06E+00,3.637950182E0,7.831050396E0
1.677345830E-1,-3.14E+00,3.657000065E0,7.851000309E0
1.716902750E-1,-3.14E+00,3.619050264E0,7.888950348E0
1.756465060E-1,-3.12E+00,3.676050186E0,7.984950542E0
1.796026110E-1,-3.10E+00,3.694950104E0,8.041950226E0
1.835583030E-1,-3.06E+00,3.657000065E0,8.023050308E0
1.875142260E-1,-3.01E+00,3.580050230E0,7.966050148E0
1.914700870E-1,-2.72E+00,3.312000275E0,7.812000275E0
1.954257800E-1,-2.74E+00,3.178050041E0,7.486950397E0
1.993821640E-1,-2.95E+00,3.235950232E0,7.639950275E0
2.033382550E-1,-3.22E+00,3.139950037E0,7.792950153E0
2.072941780E-1,-3.33E+00,3.102000237E0,7.678050518E0
2.112504090E-1,-3.16E+00,3.025050163E0,7.353000164E0
2.152064660E-1,-2.95E+00,3.121050119E0,7.123050213E0
2.191624660E-1,-2.81E+00,3.121050119E0,7.027050495E0
2.231186200E-1,-2.72E+00,3.102000237E0,6.931050301E0
2.270743360E-1,-2.70E+00,3.139950037E0,6.931050301E0
2.310300290E-1,-2.68E+00,3.139950037E0,6.874050140E0
2.349857980E-1,-2.78E+00,3.121050119E0,6.931050301E0
2.389416630E-1,-2.93E+00,3.102000237E0,6.988950253E0
2.428977400E-1,-3.18E+00,3.121050119E0,7.180050373E0
2.468538940E-1,-3.45E+00,3.063000202E0,7.314000130E0
2.508101350E-1,-3.68E+00,3.025050163E0,7.314000130E0
2.547668270E-1,-3.93E+00,2.929050207E0,7.429050446E0
2.587232880E-1,-4.16E+00,2.853000164E0,7.543950558E0
2.626795040E-1,-4.35E+00,2.700000048E0,7.735950470E0
2.666359660E-1,-4.52E+00,2.565000057E0,7.945950508E0
2.705921200E-1,-4.73E+00,2.431050062E0,8.194950104E0
2.745483600E-1,-4.98E+00,2.221050024E0,8.406000137E0
2.785048220E-1,-5.19E+00,2.029050112E0,8.596950531E0
2.824610530E-1,-5.36E+00,1.857000113E0,8.788949966E0
2.864173410E-1,-5.51E+00,1.684950113E0,8.904000282E0
2.903740340E-1,-5.61E+00,1.531050086E0,9.076050758E0
2.943309570E-1,-5.59E+00,1.396950126E0,9.133950233E0
2.982871730E-1,-5.49E+00,1.243950009E0,9.210000038E0
3.022435570E-1,-5.36E+00,1.206000090E0,9.153000832E0
3.061996340E-1,-5.17E+00,1.129050016E0,9.037950516E0
3.101557060E-1,-4.90E+00,1.072050095E0,8.827050209E0
3.141117830E-1,-4.58E+00,1.033950090E0,8.655000687E0
3.180673980E-1,-4.19E+00,1.014000058E0,8.502000809E0
3.220232550E-1,-3.91E+00,1.014000058E0,8.463000298E0
3.259794080E-1,-3.71E+00,9.760500193E-1,8.406000137E0
3.299358700E-1,-3.60E+00,9.570000172E-1,8.482950211E0
3.338921880E-1,-3.54E+00,9.190500379E-1,8.731050491E0
3.378486490E-1,-3.54E+00,9.000000358E-1,8.884950638E0
3.418051110E-1,-3.48E+00,9.190500379E-1,9.076050758E0
3.457611200E-1,-3.50E+00,9.000000358E-1,9.363000870E0
3.497172740E-1,-3.47E+00,9.000000358E-1,9.592950821E0
3.536733510E-1,-3.41E+00,8.419500589E-1,9.841950417E0
3.576296730E-1,-3.35E+00,9.190500379E-1,1.028295040E1
3.615858270E-1,-3.18E+00,8.610000610E-1,1.001400089E1
3.655421350E-1,-2.93E+00,7.650000453E-1,9.363000870E0
3.694980430E-1,-2.87E+00,6.120000482E-1,9.459000587E0
3.734538890E-1,-2.76E+00,5.359500051E-1,9.880050659E0
3.774098120E-1,-2.55E+00,4.020000100E-1,9.555000305E0
3.813664860E-1,-2.39E+00,3.250500262E-1,9.517050743E0
3.853224860E-1,-2.36E+00,2.680500150E-1,9.517050743E0
3.892784090E-1,-2.39E+00,1.720500141E-1,9.459000587E0
3.932345710E-1,-2.45E+00,1.339500099E-1,9.421050072E0
3.971911870E-1,-2.62E+00,9.495000541E-2,9.439949989E0
4.011475710E-1,-2.74E+00,3.795000166E-2,9.459000587E0
4.051024380E-1,-2.95E+00,-3.80E-02,9.535950661E0
4.090588220E-1,-3.18E+00,-1.72E-01,9.631950378E0
4.130149760E-1,-3.37E+00,-2.29E-01,9.745950699E0
4.169711980E-1,-3.62E+00,-2.87E-01,9.804000854E0
4.209274290E-1,-3.81E+00,-4.02E-01,9.766050339E0
4.248831980E-1,-3.96E+00,-5.17E-01,9.651000023E0
4.288392030E-1,-4.04E+00,-5.74E-01,9.439949989E0
4.327952800E-1,-4.08E+00,-6.12E-01,9.094950676E0
4.367516640E-1,-4.12E+00,-7.08E-01,8.751000404E0
4.407081160E-1,-4.17E+00,-7.46E-01,8.463000298E0
4.446637310E-1,-4.27E+00,-8.23E-01,8.272050858E0
4.486199620E-1,-4.17E+00,-9.19E-01,8.023050308E0
4.525760490E-1,-4.17E+00,-9.76E-01,7.678050518E0
4.565323570E-1,-4.00E+00,-9.19E-01,7.333950520E0
4.604888180E-1,-3.93E+00,-7.08E-01,6.970050335E0
4.644453520E-1,-3.94E+00,-4.02E-01,6.643950462E0
4.684023520E-1,-3.91E+00,-1.14E-01,6.376050472E0
4.723599670E-1,-3.83E+00,2.100000083E-1,6.280050278E0
4.763162170E-1,-3.85E+00,4.590000212E-1,6.319050312E0
4.802720630E-1,-3.83E+00,6.889500618E-1,6.490950108E0
4.842279860E-1,-3.64E+00,8.800500631E-1,7.621050358E0
4.881842220E-1,-3.73E+00,1.206000090E0,9.517050743E0
4.921407610E-1,-3.75E+00,1.302000046E0,9.133950233E0
4.960974530E-1,-3.85E+00,1.263000011E0,8.904000282E0
5.000537460E-1,-3.69E+00,1.072050095E0,8.980050087E0
5.040102070E-1,-3.66E+00,9.949500561E-1,9.037950516E0
5.079667460E-1,-3.73E+00,9.949500561E-1,9.574050903E0
5.119232940E-1,-3.91E+00,9.760500193E-1,1.016805077E1
5.158795250E-1,-4.08E+00,9.760500193E-1,1.057005024E1
5.198360630E-1,-4.17E+00,9.379500151E-1,1.062705040E1
5.237926070E-1,-4.71E+00,1.110000014E0,9.937950134E0
5.277489910E-1,-5.15E+00,1.492950082E0,9.153000832E0
5.317052990E-1,-5.46E+00,1.723050117E0,9.037950516E0
5.356619180E-1,-4.37E+00,1.243950009E0,9.268050194E0
5.396169180E-1,-1.82E+00,-3.80E-02,9.249000549E0
5.435736110E-1,-7.46E-01,-6.70E-01,9.114000320E0
5.475297700E-1,-3.44E-01,-8.42E-01,8.712000847E0
5.514851540E-1,0.000000000E0,-6.70E-01,8.539950371E0
5.554413080E-1,2.290500104E-1,-4.97E-01,8.539950371E0
5.593976260E-1,7.080000043E-1,-5.17E-01,8.655000687E0
5.633543180E-1,1.129050016E0,-6.12E-01,8.655000687E0
5.673110870E-1,1.359000087E0,-6.89E-01,8.521050453E0
5.712674910E-1,1.168050051E0,-5.17E-01,8.041950226E0
5.752237990E-1,1.053000093E0,-2.68E-01,7.525050163E0
5.791801830E-1,9.949500561E-1,-2.10E-01,7.314000130E0
5.831361540E-1,1.225050092E0,-2.68E-01,7.066050529E0
5.870926930E-1,1.551000118E0,-3.06E-01,6.625050545E0
5.910491540E-1,1.857000113E0,-2.87E-01,6.300000191E0
5.950058270E-1,2.143949986E0,-3.63E-01,6.070050240E0
5.989627500E-1,2.296950102E0,-3.82E-01,5.974050522E0
6.029196730E-1,2.392950058E0,-4.97E-01,6.012000084E0
6.068762010E-1,2.488950014E0,-6.12E-01,5.974050522E0
6.108321240E-1,2.661000013E0,-7.85E-01,5.839950085E0
6.147882780E-1,2.814000130E0,-9.57E-01,5.782950401E0
6.187444760E-1,2.239950180E0,-8.23E-01,5.668050289E0
6.227004760E-1,1.953000069E0,-6.89E-01,5.668050289E0
6.266564760E-1,1.933950067E0,-6.12E-01,5.782950401E0
6.306127740E-1,2.143949986E0,-6.31E-01,5.859000206E0
6.345693120E-1,2.317050219E0,-8.04E-01,5.821050167E0
6.385257740E-1,2.661000013E0,-9.76E-01,5.647950172E0
6.424819950E-1,3.274050236E0,-1.19E+00,5.457000256E0
6.464383790E-1,3.886950254E0,-1.32E+00,5.227050304E0
6.503946100E-1,4.270050049E0,-1.40E+00,4.978050232E0
6.543511290E-1,4.480050087E0,-1.55E+00,4.653000355E0
6.583072830E-1,4.633950233E0,-1.78E+00,4.345950127E0
6.622637450E-1,4.729050159E0,-2.07E+00,3.963000298E0
6.662202740E-1,4.843950272E0,-2.34E+00,3.657000065E0
6.701764280E-1,4.768050194E0,-2.66E+00,3.427050114E0
6.741329670E-1,4.500000000E0,-2.99E+00,3.102000237E0
6.780895140E-1,4.039950371E0,-3.43E+00,2.719050169E0
6.820461300E-1,3.637950182E0,-3.85E+00,2.317050219E0
6.860025140E-1,3.255000114E0,-4.33E+00,2.106000185E0
6.899582160E-1,2.106000185E0,-4.25E+00,1.627050042E0
6.939139860E-1,1.033950090E0,-4.00E+00,1.378050089E0
6.978699090E-1,4.969500303E-1,-3.93E+00,1.455000043E0
7.018253410E-1,4.020000100E-1,-4.08E+00,1.417050123E0
7.057811110E-1,8.040000200E-1,-4.44E+00,1.302000046E0
7.097369570E-1,1.396950126E0,-4.83E+00,1.302000046E0
7.136926250E-1,1.857000113E0,-5.09E+00,1.243950009E0
7.176483170E-1,2.202000141E0,-4.75E+00,1.608000040E0
7.216034710E-1,2.565000057E0,-4.14E+00,2.068050146E0
7.255591440E-1,3.217050076E0,-3.87E+00,2.278050184E0
7.295152970E-1,3.637950182E0,-3.96E+00,2.335950136E0
7.334712970E-1,3.523050070E0,-4.29E+00,2.451000214E0
7.374271970E-1,3.217050076E0,-4.58E+00,2.470050097E0
7.413830430E-1,2.853000164E0,-4.92E+00,2.335950136E0
7.453388890E-1,2.641950130E0,-5.13E+00,2.182049990E0
7.492948700E-1,2.488950014E0,-5.25E+00,2.125050068E0
7.532509470E-1,2.317050219E0,-5.28E+00,2.163000107E0
7.572063310E-1,2.182049990E0,-5.38E+00,2.355000019E0
7.611623990E-1,2.163000107E0,-5.49E+00,2.565000057E0
7.651179380E-1,2.221050024E0,-5.67E+00,3.006000042E0
7.690737840E-1,2.296950102E0,-5.99E+00,3.868050098E0
7.730294330E-1,2.853000164E0,-6.41E+00,5.092950344E0
7.769858950E-1,3.810000181E0,-6.64E+00,6.643950462E0
7.809422790E-1,3.523050070E0,-5.55E+00,7.870050430E0
7.848986740E-1,4.308000088E0,-5.73E+00,8.712000847E0
7.888550590E-1,5.170050144E0,-6.53E+00,9.823050499E0
7.928110590E-1,5.572050095E0,-7.05E+00,1.062705040E1
7.967677550E-1,5.743950367E0,-7.22E+00,1.114395046E1
8.007237550E-1,5.782950401E0,-6.91E+00,1.133595085E1
8.046802170E-1,5.992950439E0,-6.72E+00,1.133595085E1
8.086365100E-1,5.992950439E0,-6.26E+00,1.114395046E1
8.125928180E-1,6.070050240E0,-5.86E+00,1.080000019E1
8.165495100E-1,6.414000511E0,-5.71E+00,1.045500088E1
8.205058130E-1,6.970050335E0,-5.63E+00,1.016805077E1
8.244618130E-1,7.410000324E0,-5.44E+00,9.880050659E0
8.284181980E-1,7.831050396E0,-5.13E+00,9.631950378E0
8.323748180E-1,8.368050575E0,-4.90E+00,9.496950150E0
8.363315100E-1,8.980050087E0,-4.59E+00,9.478050232E0
8.402875100E-1,9.496950150E0,-4.35E+00,9.651000023E0
8.442442800E-1,9.919050217E0,-4.23E+00,9.823050499E0
8.482012800E-1,9.957000732E0,-3.73E+00,1.005300045E1
8.521576640E-1,1.024395084E1,-3.69E+00,1.032105064E1
8.561138950E-1,1.106805038E1,-4.29E+00,1.087605095E1
8.600702030E-1,1.137405014E1,-4.65E+00,1.143195057E1
8.640265100E-1,1.148895073E1,-4.81E+00,1.181505013E1
8.679825630E-1,1.173795033E1,-4.84E+00,1.229295063E1
8.719384100E-1,1.208295059E1,-4.79E+00,1.265700054E1
8.758946400E-1,1.258005047E1,-4.59E+00,1.292505074E1
8.798501690E-1,1.321200085E1,-4.73E+00,1.303995037E1
8.838061690E-1,1.393995094E1,-4.59E+00,1.340400028E1
8.877620150E-1,1.468695068E1,-4.29E+00,1.386300087E1
8.917171980E-1,1.547205067E1,-4.06E+00,1.405500031E1
8.956725050E-1,1.604594994E1,-3.93E+00,1.417005062E1
8.996279670E-1,1.652505112E1,-3.71E+00,1.401705074E1
9.035836500E-1,1.685100174E1,-3.52E+00,1.378695107E1
9.075396500E-1,1.679295158E1,-3.52E+00,1.357605076E1
9.114954970E-1,1.681200027E1,-3.33E+00,1.319295025E1
9.154517360E-1,1.687005043E1,-3.06E+00,1.279095078E1
9.194077360E-1,1.687005043E1,-2.85E+00,1.217805099E1
9.233641980E-1,1.687005043E1,-2.64E+00,1.133595085E1
9.273202700E-1,1.654395103E1,-2.22E+00,1.055100060E1
9.312765780E-1,1.568295097E1,-1.53E+00,1.014900017E1
9.352328850E-1,1.637205124E1,-1.61E+00,9.363000870E0
9.391891690E-1,1.746300125E1,-1.82E+00,8.655000687E0
9.431451690E-1,1.822905159E1,-1.80E+00,8.214000702E0
9.471018610E-1,1.843995094E1,-1.55E+00,8.004000664E0
9.510582460E-1,1.830600166E1,-1.28E+00,7.927050591E0
9.550146300E-1,1.755900002E1,-1.01E+00,8.004000664E0
9.589713230E-1,1.710000038E1,-8.42E-01,8.004000664E0
9.629281450E-1,1.713795090E1,-9.57E-01,7.812000275E0
9.668842990E-1,1.690800095E1,-9.95E-01,7.639950275E0
9.708408370E-1,1.658295059E1,-9.95E-01,7.449000359E0
9.747970530E-1,1.585500050E1,-9.00E-01,7.294950485E0
9.787531300E-1,1.453395081E1,-4.40E-01,7.276050568E0
9.827094380E-1,1.478295040E1,-7.27E-01,6.855000496E0
9.866657450E-1,1.524195099E1,-1.09E+00,6.261000156E0
9.906222070E-1,1.541505051E1,-1.30E+00,5.743950367E0
9.945788990E-1,1.510800076E1,-1.30E+00,5.266050339E0
9.985352260E-1,1.441905022E1,-1.11E+00,4.902000427E0
1.002491226E0,1.369095039E1,-8.80E-01,4.519050121E0
1.006447303E0,1.313595104E1,-7.85E-01,4.135950089E0
1.010403394E0,1.281000042E1,-7.46E-01,3.694950104E0
1.014359471E0,1.256100082E1,-8.42E-01,3.217050076E0
1.018315471E0,1.237005043E1,-9.19E-01,2.737950087E0
1.022271534E0,1.223595047E1,-9.76E-01,2.317050219E0
1.026227842E0,1.192905045E1,-8.80E-01,1.933950067E0
1.030183995E0,1.168005085E1,-8.23E-01,1.723050117E0
1.034139995E0,1.156605053E1,-9.76E-01,1.455000043E0
1.038095918E0,1.141200066E1,-9.57E-01,1.378050089E0
1.042052303E0,1.131705093E1,-8.80E-01,1.206000090E0
1.046008596E0,1.110600090E1,-7.27E-01,1.053000093E0
1.049964519E0,1.080000019E1,-4.59E-01,9.570000172E-1
1.053921134E0,1.068495083E1,-4.59E-01,9.949500561E-1
1.057877442E0,1.076100063E1,-6.51E-01,9.949500561E-1
1.061834211E0,1.064595032E1,-7.08E-01,8.800500631E-1
1.065790980E0,1.032105064E1,-6.51E-01,7.270500064E-1
1.069747370E0,9.861000061E0,-7.65E-01,5.359500051E-1
1.073704216E0,9.745950699E0,-1.40E+00,2.680500150E-1
1.077660832E0,9.535950661E0,-1.57E+00,1.140000075E-1
1.081617201E0,9.172050476E0,-1.40E+00,1.720500141E-1
1.085573586E0,8.692950249E0,-1.21E+00,2.100000083E-1
1.089530047E0,8.214000702E0,-1.38E+00,3.060000241E-1
1.093486610E0,7.792950153E0,-1.61E+00,4.590000212E-1
1.097443379E0,7.449000359E0,-1.86E+00,6.310500503E-1
1.101400225E0,7.237950325E0,-2.01E+00,6.700500250E-1
1.105356889E0,7.066050529E0,-1.95E+00,5.359500051E-1
1.109313119E0,7.468050480E0,-2.57E+00,3.250500262E-1
1.113270273E0,8.233950615E0,-3.04E+00,3.795000166E-2
1.117228201E0,8.578050613E0,-2.95E+00,-1.53E-01
1.121184971E0,8.463000298E0,-2.53E+00,-2.68E-01
1.125141509E0,8.253000259E0,-2.16E+00,-2.48E-01
1.129098019E0,8.253000259E0,-2.05E+00,-4.21E-01
1.133054711E0,8.233950615E0,-2.18E+00,-1.57E+00
1.137011172E0,8.329050064E0,-2.49E+00,-2.11E+00
1.140967379E0,8.368050575E0,-2.74E+00,-2.45E+00
1.144923533E0,8.253000259E0,-2.97E+00,-2.58E+00
1.148880072E0,7.851000309E0,-2.45E+00,-2.20E+00
1.152836461E0,7.888950348E0,-2.60E+00,-2.09E+00
1.156792769E0,8.041950226E0,-3.16E+00,-2.60E+00
1.160749230E0,8.310000420E0,-3.60E+00,-2.58E+00
1.164705451E0,8.214000702E0,-4.08E+00,-2.53E+00
1.168661759E0,8.272050858E0,-4.38E+00,-2.57E+00
1.172618144E0,8.443950653E0,-4.44E+00,-2.58E+00
1.176574533E0,8.692950249E0,-4.37E+00,-2.32E+00
1.180530533E0,9.190950394E0,-4.14E+00,-1.99E+00
1.184486456E0,1.014900017E1,-4.44E+00,-1.51E+00
1.188442605E0,9.994950294E0,-4.16E+00,-6.51E-01
1.192399067E0,9.861000061E0,-3.79E+00,-3.44E-01
1.196355297E0,9.651000023E0,-3.45E+00,-1.72E-01
1.200311437E0,9.727050781E0,-3.48E+00,-5.17E-01
1.204267745E0,9.841950417E0,-3.62E+00,-7.85E-01
1.208224283E0,9.574050903E0,-3.56E+00,-7.08E-01
1.212180682E0,9.459000587E0,-3.12E+00,-4.40E-01
1.216135990E0,9.382950783E0,-2.72E+00,-1.14E-01
1.220090836E0,9.880050659E0,-2.76E+00,2.680500150E-1
1.224047899E0,9.994950294E0,-2.45E+00,6.510000229E-1
1.228005053E0,1.022505093E1,-2.30E+00,1.033950090E0
1.231962207E0,1.041705036E1,-2.28E+00,1.206000090E0
1.235918596E0,1.047405052E1,-2.43E+00,1.147950053E0
1.239874827E0,1.058895016E1,-2.47E+00,9.000000358E-1
1.243831058E0,1.055100060E1,-2.45E+00,6.120000482E-1
1.247786451E0,1.047405052E1,-2.55E+00,2.290500104E-1
1.251742682E0,1.043595028E1,-2.47E+00,0.000000000E0
1.255700221E0,1.070400047E1,-2.30E+00,-2.48E-01
1.259657072E0,1.123995018E1,-1.86E+00,-6.31E-01
1.263613610E0,1.194900036E1,-1.46E+00,-7.85E-01
1.267570610E0,1.240800095E1,-8.04E-01,-5.74E-01
1.271526923E0,1.263795090E1,-4.97E-01,-6.51E-01
1.275483231E0,1.279095078E1,-4.78E-01,-9.00E-01
1.279440154E0,1.267605019E1,-7.61E-02,-9.57E-01
1.283397754E0,1.229295063E1,4.969500303E-1,-6.89E-01
1.287354062E0,1.269495106E1,3.250500262E-1,-8.23E-01
1.291310216E0,1.292505074E1,1.909500062E-1,-8.04E-01
1.295266159E0,1.279095078E1,5.550000072E-1,-4.78E-01
1.299221851E0,1.221705055E1,4.780500233E-1,-2.29E-01
1.303176851E0,1.217805099E1,5.170500278E-1,1.140000075E-1
1.307132164E0,1.166100025E1,7.270500064E-1,9.495000541E-2
1.311088548E0,1.091400051E1,1.072050095E0,6.120000482E-1
1.315045010E0,1.049295044E1,1.263000011E0,1.090950012E0
1.319001447E0,9.919050217E0,1.263000011E0,1.551000118E0
1.322957908E0,8.463000298E0,9.760500193E-1,7.849500179E-1
1.326914139E0,8.157000542E0,5.359500051E-1,1.206000090E0
1.330869548E0,8.023050308E0,-7.61E-02,3.370050192E0
1.334825395E0,7.410000324E0,-1.14E-01,3.847950220E0
1.338781702E0,6.510000229E0,-6.51E-01,3.733950138E0
1.342737779E0,5.208000183E0,-3.44E-01,2.527050018E0
1.346693779E0,4.288949966E0,-9.19E-01,1.741950035E0
1.350650625E0,-1.91E-01,-2.14E+00,3.847950220E0
1.354605803E0,9.379500151E-1,-4.14E+00,2.278050184E0
1.358562880E0,2.794950247E0,-5.23E+00,3.250500262E-1
1.362520649E0,2.700000048E0,-4.61E+00,-1.13E+00
1.366475948E0,2.700000048E0,-3.12E+00,1.359000087E0
1.370432256E0,2.968050241E0,-3.39E+00,4.557000160E0
1.374388564E0,2.182049990E0,-4.61E+00,4.843950272E0
1.378344198E0,2.412000179E0,-5.88E+00,4.288949966E0
1.382299660E0,1.704000115E0,-5.99E+00,3.504000187E0
1.386256660E0,-1.28E+00,-5.74E+00,1.704000115E0
1.390213967E0,-5.36E+00,-5.34E+00,-7.46E-01
1.394169044E0,-1.99E+00,-5.17E+00,-4.75E+00
1.398122736E0,1.800000072E0,-4.42E+00,-6.82E+00
1.402078116E0,5.112000465E0,-3.77E+00,-6.99E+00
1.406033885E0,5.647950172E0,-2.18E+00,-5.69E+00
1.409990808E0,4.461000443E0,-1.91E-02,-3.35E+00
1.413946674E0,5.208000183E0,3.820500076E-1,-1.63E+00
1.417900289E0,4.882950306E0,-2.10E-01,-9.57E-01
1.421855443E0,3.580050230E0,-1.05E+00,-5.17E-01
1.425809737E0,2.374050140E0,-2.28E+00,9.570000172E-1
1.429765506E0,1.339950085E0,-2.37E+00,2.488950014E0
1.433721198E0,1.206000090E0,-2.99E+00,3.829050064E0
1.437676819E0,2.182049990E0,-4.48E+00,4.270050049E0
1.441632357E0,3.292950153E0,-4.77E+00,3.600000143E0
1.445587588E0,4.155000210E0,-4.50E+00,9.190500379E-1
1.449545347E0,4.519050121E0,-3.27E+00,-1.03E+00
1.453501424E0,4.461000443E0,-2.03E+00,-2.68E+00
1.457457270E0,5.208000183E0,-2.34E+00,-3.56E+00
1.461413049E0,5.245950222E0,-2.58E+00,-2.51E+00
1.465368972E0,4.863000393E0,-3.03E+00,-1.82E+00
1.469322357E0,5.245950222E0,-3.68E+00,8.040000200E-1
1.473277525E0,6.031050205E0,-4.12E+00,1.435950041E0
1.477233140E0,7.008000374E0,-3.33E+00,9.379500151E-1
1.481189063E0,8.751000404E0,-2.70E+00,1.282050014E0
1.485144756E0,1.028295040E1,-2.20E+00,1.531050086E0
1.489100448E0,1.110600090E1,-1.65E+00,1.378050089E0
1.493056525E0,1.181505013E1,-1.01E+00,1.014000058E0
1.497012294E0,1.246605015E1,-3.44E-01,4.780500233E-1
1.500968910E0,1.303995037E1,-9.50E-02,-1.91E-02
1.504924371E0,1.305900097E1,-3.63E-01,-7.46E-01
1.508880072E0,1.238895035E1,-7.85E-01,-2.32E+00
1.512835688E0,1.194900036E1,-1.72E+00,-5.49E+00
1.516791226E0,1.294395065E1,-3.20E+00,-1.15E+01
1.520747433E0,1.357605076E1,-4.90E+00,-1.54E+01
1.524703587E0,1.200600052E1,-5.84E+00,-1.48E+01
1.528659433E0,9.766050339E0,-6.01E+00,-1.16E+01
1.532615510E0,8.061000824E0,-5.42E+00,-8.04E+00
1.536571587E0,6.892950535E0,-4.96E+00,-5.11E+00
1.540527972E0,6.796950340E0,-5.42E+00,-3.29E+00
1.544484592E0,6.951000214E0,-5.90E+00,-2.79E+00
1.548441361E0,7.237950325E0,-6.51E+00,-2.49E+00
1.552397823E0,7.353000164E0,-7.07E+00,-2.34E+00
1.556353895E0,7.333950520E0,-7.43E+00,-2.05E+00
1.560309972E0,7.237950325E0,-8.06E+00,-2.28E+00
1.564266356E0,7.257000446E0,-8.67E+00,-3.18E+00
1.568222433E0,7.486950397E0,-8.87E+00,-4.38E+00
1.572178433E0,7.506000519E0,-8.67E+00,-5.30E+00
1.576134126E0,7.180050373E0,-8.43E+00,-5.76E+00
1.580090823E0,6.951000214E0,-8.21E+00,-6.17E+00
1.584047131E0,6.855000496E0,-7.93E+00,-5.94E+00
1.588003131E0,6.490950108E0,-7.53E+00,-4.94E+00
1.591958967E0,6.337950230E0,-6.97E+00,-4.25E+00
1.595914505E0,6.643950462E0,-6.57E+00,-4.46E+00
1.599870121E0,6.796950340E0,-6.43E+00,-6.41E+00
1.603826121E0,7.449000359E0,-6.74E+00,-9.19E+00
1.607782121E0,7.468050480E0,-6.61E+00,-9.71E+00
1.611737813E0,7.257000446E0,-6.39E+00,-8.33E+00
1.615693914E0,6.261000156E0,-5.42E+00,-5.67E+00
1.619649914E0,5.400000095E0,-4.40E+00,-3.14E+00
1.623606068E0,5.494950294E0,-3.89E+00,-2.22E+00
1.627561987E0,5.341950417E0,-3.48E+00,-1.95E+00
1.631517525E0,4.576050282E0,-3.08E+00,-1.65E+00
1.635472833E0,3.504000187E0,-2.70E+00,-1.13E+00
1.639428462E0,2.565000057E0,-2.99E+00,-6.12E-01
1.643384001E0,1.914000034E0,-3.81E+00,-4.97E-01
1.647339924E0,3.060000241E-1,-5.11E+00,1.905000024E-2
1.651298121E0,-1.03E+00,-8.50E+00,-1.72E-01
1.655252044E0,-1.91E-01,-1.09E+01,7.605000585E-2
1.659207352E0,2.290500104E-1,-1.13E+01,1.053000093E0
1.663164578E0,-1.46E+00,-2.00E+01,3.630000055E-1
1.667121424E0,-2.37E+00,-2.98E+01,-9.19E-01
1.671076271E0,-4.59E+00,-3.90E+01,-6.12E-01
1.675031045E0,-9.08E+00,-3.92E+01,-3.82E-01
1.678986968E0,-1.40E+01,-3.92E+01,8.230500221E-1
1.682941814E0,-1.85E+01,-3.92E+01,6.012000084E0
1.686897895E0,-1.54E+01,-3.92E+01,8.674050331E0
1.690854049E0,-1.15E+01,-3.92E+01,8.635950089E0
1.694810049E0,-8.37E+00,-3.92E+01,7.966050148E0
1.698768271E0,-3.60E+00,-3.92E+01,7.678050518E0
1.702723194E0,3.255000114E0,-3.67E+01,8.751000404E0
1.706679117E0,7.927050591E0,-3.30E+01,1.066605091E1
1.710634659E0,1.091400051E1,-3.09E+01,1.170000076E1
1.714590275E0,9.421050072E0,-2.90E+01,1.070400047E1
1.718554659E0,4.135950089E0,-2.85E+01,8.502000809E0
1.722503497E0,-7.61E-02,-2.74E+01,7.066050529E0
1.726458958E0,-3.47E+00,-2.48E+01,6.088950157E0
1.730414958E0,-5.27E+00,-2.16E+01,4.710000038E0
1.734370717E0,-6.17E+00,-1.91E+01,2.794950247E0
1.738328256E0,-7.72E+00,-1.61E+01,-2.60E+00
1.742285333E0,-1.07E+01,-1.22E+01,-1.31E+01
1.746241424E0,-1.09E+01,-9.84E+00,-1.36E+01
1.750197731E0,-8.88E+00,-8.25E+00,-1.01E+01
1.754154039E0,-6.57E+00,-7.05E+00,-6.22E+00
1.758110246E0,-4.65E+00,-5.99E+00,-3.29E+00
1.762066400E0,-3.26E+00,-4.90E+00,-1.49E+00
1.766022938E0,-2.30E+00,-3.79E+00,-8.42E-01
1.769979468E0,-1.61E+00,-2.70E+00,-1.38E+00
1.773935391E0,-1.07E+00,-1.17E+00,-3.41E+00
1.777893391E0,-3.82E-01,7.080000043E-1,-4.73E+00
1.781847784E0,3.250500262E-1,2.623050213E0,-2.47E+00
1.785803015E0,8.419500589E-1,3.351000071E0,-1.91E-02
1.789759477E0,9.760500193E-1,2.986950159E0,7.605000585E-2
1.793717468E0,1.129050016E0,2.545950174E0,-7.61E-02
1.797674083E0,1.186950088E0,2.068050146E0,-2.29E-01
1.801630622E0,1.072050095E0,1.608000040E0,-4.78E-01
1.805587684E0,8.800500631E-1,1.186950088E0,-6.70E-01
1.809544376E0,6.120000482E-1,7.459500432E-1,-5.93E-01
1.813500914E0,4.780500233E-1,4.399500191E-1,-6.12E-01
1.817457386E0,3.630000055E-1,3.060000241E-1,-6.12E-01
1.821413386E0,3.820500076E-1,2.100000083E-1,-6.51E-01
1.825369924E0,1.512000084E0,5.170500278E-1,-7.85E-01
1.829326227E0,2.451000214E0,1.072050095E0,-8.80E-01
1.833282535E0,1.800000072E0,7.650000453E-1,-1.01E+00
1.837238919E0,1.512000084E0,6.120000482E-1,-1.15E+00
1.841195309E0,1.588950038E0,6.889500618E-1,-1.38E+00
1.845151617E0,1.741950035E0,7.849500179E-1,-1.89E+00
1.849108001E0,1.780050039E0,1.186950088E0,-3.71E+00
1.853064222E0,1.741950035E0,1.645950079E0,-6.05E+00
1.857020914E0,1.359000087E0,1.665000081E0,-6.82E+00
1.860977684E0,1.072050095E0,1.608000040E0,-6.07E+00
1.864934607E0,9.570000172E-1,1.339950085E0,-4.65E+00
1.868891376E0,8.610000610E-1,1.110000014E0,-3.29E+00
1.872848145E0,7.080000043E-1,9.760500193E-1,-2.16E+00
1.876804583E0,5.929500461E-1,8.419500589E-1,-1.28E+00
1.880761737E0,4.020000100E-1,7.459500432E-1,-8.61E-01
1.884718660E0,2.869500220E-1,6.700500250E-1,-6.89E-01
1.888675361E0,1.530000120E-1,6.510000229E-1,-5.55E-01
1.892632053E0,9.495000541E-2,6.310500503E-1,-5.36E-01
1.896588746E0,5.700000376E-2,6.310500503E-1,-4.59E-01
1.900544852E0,3.795000166E-2,6.120000482E-1,-4.02E-01
1.904501313E0,1.905000024E-2,6.120000482E-1,-3.63E-01
1.908457775E0,3.795000166E-2,5.929500461E-1,-3.63E-01
1.912414948E0,0.000000000E0,5.929500461E-1,-2.68E-01
1.916372640E0,-1.91E-02,5.740500093E-1,-2.48E-01
1.920328563E0,-1.91E-02,5.740500093E-1,-1.91E-01
1.924283399E0,0.000000000E0,5.359500051E-1,-1.34E-01
1.928239784E0,0.000000000E0,5.170500278E-1,-1.91E-02
1.932194938E0,7.605000585E-2,4.780500233E-1,5.700000376E-2
1.936151697E0,9.495000541E-2,4.969500303E-1,1.339500099E-1
1.940108774E0,1.140000075E-1,4.210500121E-1,2.479500175E-1
1.944065543E0,1.530000120E-1,4.210500121E-1,3.060000241E-1
1.948022010E0,1.720500141E-1,4.020000100E-1,3.820500076E-1
1.951978471E0,1.909500062E-1,4.020000100E-1,4.020000100E-1
1.955934856E0,2.290500104E-1,3.820500076E-1,4.780500233E-1
1.959891245E0,2.680500150E-1,3.820500076E-1,4.969500303E-1
1.963847476E0,2.479500175E-1,3.820500076E-1,4.399500191E-1
1.967803707E0,2.479500175E-1,3.820500076E-1,3.820500076E-1
1.971759856E0,2.290500104E-1,3.820500076E-1,2.680500150E-1
1.975715702E0,1.909500062E-1,3.820500076E-1,1.140000075E-1
1.979672702E0,1.720500141E-1,4.020000100E-1,-1.91E-02
1.983628707E0,1.140000075E-1,4.020000100E-1,-1.34E-01
1.987584784E0,1.339500099E-1,3.820500076E-1,-1.34E-01
1.991541322E0,1.530000120E-1,2.869500220E-1,-1.72E-01
1.995495875E0,1.909500062E-1,-3.80E-02,-2.10E-01
1.999451875E0,2.869500220E-1,-1.91E-01,-2.10E-01
2.003408259E0,3.250500262E-1,-2.87E-01,-2.68E-01
2.007364245E0,3.439500034E-1,-3.63E-01,-6.70E-01
2.011320476E0,9.379500151E-1,-1.23E+00,-7.18E+00
2.015277707E0,1.627050042E0,-2.78E+00,-1.69E+01
2.019234394E0,1.072050095E0,-3.22E+00,-1.47E+01
2.023191010E0,4.399500191E-1,-3.71E+00,-1.20E+01
2.027147471E0,0.000000000E0,-4.37E+00,-9.73E+00
2.031105174E0,-3.06E-01,-4.73E+00,-7.20E+00
2.035061558E0,-7.65E-01,-5.34E+00,-4.73E+00
2.039018174E0,-1.05E+00,-6.57E+00,-3.73E+00
2.042974634E0,-1.53E+00,-8.33E+00,-9.76E-01
2.046930326E0,-1.88E+00,-9.71E+00,1.990950108E0
2.050886634E0,-1.47E+00,-9.99E+00,2.259000063E0
2.054843015E0,-6.12E-01,-1.04E+01,2.737950087E0
2.058797399E0,3.630000055E-1,-1.06E+01,3.351000071E0
2.062753784E0,4.210500121E-1,-1.20E+01,3.982950211E0
2.066711962E0,-8.61E-01,-1.49E+01,3.619050264E0
2.070668654E0,-2.93E+00,-1.79E+01,3.637950182E0
2.074626193E0,-5.34E+00,-2.35E+01,-1.72E-01
2.078582500E0,-7.74E+00,-3.07E+01,-4.61E+00
2.082536962E0,-8.52E+00,-3.77E+01,-7.08E+00
2.086491577E0,-8.02E+00,-3.92E+01,-7.70E+00
2.090449615E0,-4.48E+00,-3.92E+01,-7.64E+00
2.094403000E0,2.278050184E0,-3.92E+01,-5.34E+00
2.098359000E0,7.066050529E0,-3.92E+01,-1.89E+00
2.102313221E0,7.429050446E0,-3.92E+01,7.650000453E-1
2.106271451E0,4.021049976E0,-3.91E+01,3.484950066E0
2.110227375E0,1.474050045E0,-3.54E+01,7.008000374E0
2.114185083E0,-2.10E-01,-2.95E+01,7.582950592E0
2.118140544E0,-4.02E-01,-2.48E+01,5.974050522E0
2.122094314E0,2.100000083E-1,-2.09E+01,4.021049976E0
2.126050227E0,9.379500151E-1,-1.76E+01,2.392950058E0
2.130005996E0,8.419500589E-1,-1.49E+01,1.014000058E0
2.133964919E0,-1.14E-01,-1.28E+01,-3.44E-01
2.137921073E0,-8.04E-01,-1.10E+01,-1.19E+00
2.141877073E0,-1.57E+00,-9.33E+00,-2.14E+00
2.145832611E0,-2.14E+00,-8.06E+00,-2.89E+00
2.149789001E0,-2.64E+00,-6.93E+00,-3.50E+00
2.153744693E0,-2.95E+00,-5.96E+00,-3.85E+00
2.157700616E0,-3.24E+00,-5.13E+00,-4.54E+00
2.161656933E0,-3.58E+00,-4.42E+00,-6.34E+00
2.165613241E0,-3.56E+00,-4.19E+00,-7.56E+00
2.169569087E0,-3.68E+00,-4.67E+00,-7.07E+00
2.173525318E0,-3.93E+00,-5.94E+00,-5.61E+00
2.177481395E0,-3.85E+00,-7.83E+00,-4.37E+00
2.181437164E0,-3.56E+00,-9.48E+00,-3.22E+00
2.185393458E0,-3.33E+00,-1.07E+01,-2.47E+00
2.189349304E0,-2.99E+00,-1.19E+01,-2.18E+00
2.193305842E0,-2.43E+00,-1.29E+01,-2.30E+00
2.197261779E0,-1.88E+00,-1.36E+01,-2.64E+00
2.201217702E0,-1.23E+00,-1.37E+01,-3.04E+00
2.205173549E0,-8.42E-01,-1.35E+01,-3.31E+00
2.209129472E0,-4.40E-01,-1.29E+01,-3.39E+00
2.213085241E0,-7.61E-02,-1.25E+01,-3.33E+00
2.217040087E0,3.795000166E-2,-1.21E+01,-3.18E+00
2.220996097E0,7.605000585E-2,-1.17E+01,-3.03E+00
2.224953713E0,-3.80E-02,-1.10E+01,-2.91E+00
2.228910097E0,-1.72E-01,-1.04E+01,-2.76E+00
2.232866256E0,-3.25E-01,-9.86E+00,-2.60E+00
2.236822179E0,-5.17E-01,-9.33E+00,-2.41E+00
2.240778410E0,-7.65E-01,-8.92E+00,-2.20E+00
2.244734549E0,-1.07E+00,-8.67E+00,-1.95E+00
2.248690856E0,-1.34E+00,-8.52E+00,-1.72E+00
2.252646856E0,-1.53E+00,-8.41E+00,-1.46E+00
2.256603058E0,-1.59E+00,-8.33E+00,-1.30E+00
2.260559289E0,-1.57E+00,-8.27E+00,-1.24E+00
2.264514981E0,-1.53E+00,-8.19E+00,-1.23E+00
2.268470588E0,-1.46E+00,-8.14E+00,-1.23E+00
2.272426203E0,-1.32E+00,-8.14E+00,-1.32E+00
2.276382280E0,-1.17E+00,-8.06E+00,-1.42E+00
2.280338227E0,-9.57E-01,-7.93E+00,-1.55E+00
2.284294304E0,-7.46E-01,-7.81E+00,-1.65E+00
2.288250150E0,-5.93E-01,-7.66E+00,-1.74E+00
2.292205684E0,-4.59E-01,-7.62E+00,-1.82E+00
2.296161761E0,-3.63E-01,-7.72E+00,-1.74E+00
2.300116530E0,-5.70E-02,-7.62E+00,-1.80E+00
2.304070202E0,9.495000541E-2,-7.45E+00,-1.95E+00
2.308025510E0,2.479500175E-1,-7.28E+00,-2.30E+00
2.311981125E0,2.680500150E-1,-7.29E+00,-2.70E+00
2.315937606E0,1.339500099E-1,-7.47E+00,-3.14E+00
2.319893837E0,3.795000166E-2,-7.68E+00,-3.37E+00
2.323849990E0,5.700000376E-2,-8.00E+00,-3.41E+00
2.327806606E0,3.630000055E-1,-8.43E+00,-3.26E+00
2.331762760E0,6.510000229E-1,-8.66E+00,-2.95E+00
2.335718760E0,8.230500221E-1,-8.75E+00,-2.45E+00
2.339674688E0,9.190500379E-1,-8.87E+00,-1.93E+00
2.343630765E0,1.129050016E0,-8.94E+00,-1.44E+00
2.347586919E0,1.243950009E0,-9.21E+00,-9.57E-01
2.351543067E0,1.474050045E0,-9.38E+00,-4.97E-01
2.355499221E0,1.741950035E0,-9.56E+00,-2.68E-01
2.359455529E0,1.990950108E0,-9.69E+00,-1.14E-01
2.363411914E0,2.143949986E0,-9.92E+00,-2.29E-01
2.367368606E0,2.527050018E0,-1.01E+01,-5.17E-01
2.371324760E0,2.776050091E0,-9.96E+00,-4.21E-01
2.375279221E0,2.833950043E0,-1.02E+01,1.720500141E-1
2.379236991E0,2.545950174E0,-9.40E+00,-1.14E-01
2.383193529E0,2.794950247E0,-9.54E+00,-9.00E-01
2.387149447E0,2.584950209E0,-9.73E+00,-1.30E+00
2.391105370E0,2.202000141E0,-9.69E+00,-1.53E+00
2.395061216E0,1.990950108E0,-9.57E+00,-1.63E+00
2.399016837E0,1.665000081E0,-9.25E+00,-1.09E+00
2.402972452E0,1.263000011E0,-8.81E+00,-1.68E+00
2.406928375E0,1.645950079E0,-9.04E+00,-2.24E+00
2.410883971E0,1.378050089E0,-9.19E+00,-2.09E+00
2.414839663E0,9.190500379E-1,-9.21E+00,-1.80E+00
2.418794894E0,4.780500233E-1,-9.21E+00,-1.44E+00
2.422750971E0,1.140000075E-1,-9.31E+00,-1.28E+00
2.426707201E0,-2.87E-01,-9.56E+00,-1.32E+00
2.430662048E0,-6.51E-01,-9.78E+00,-1.32E+00
2.434617211E0,-9.76E-01,-1.01E+01,-1.24E+00
2.438572058E0,-1.15E+00,-1.03E+01,-9.19E-01
2.442527211E0,-1.32E+00,-1.05E+01,-7.27E-01
2.446483466E0,-1.44E+00,-1.07E+01,-8.04E-01
2.450439236E0,-1.59E+00,-1.09E+01,-1.11E+00
2.454395159E0,-1.74E+00,-1.11E+01,-1.44E+00
2.458351697E0,-1.84E+00,-1.14E+01,-1.55E+00
2.462308005E0,-1.95E+00,-1.17E+01,-1.55E+00
2.466264466E0,-1.97E+00,-1.21E+01,-1.57E+00
2.470220625E0,-1.91E+00,-1.26E+01,-1.61E+00
2.474176779E0,-1.84E+00,-1.31E+01,-1.65E+00
2.478132779E0,-1.78E+00,-1.37E+01,-1.63E+00
2.482088783E0,-1.78E+00,-1.42E+01,-1.57E+00
2.486044706E0,-1.84E+00,-1.48E+01,-1.67E+00
2.490000706E0,-1.97E+00,-1.54E+01,-1.95E+00
2.493956173E0,-2.16E+00,-1.60E+01,-2.26E+00
2.497912096E0,-2.37E+00,-1.67E+01,-2.49E+00
2.501867788E0,-2.68E+00,-1.74E+01,-2.41E+00
2.505823318E0,-3.04E+00,-1.81E+01,-2.07E+00
2.509779471E0,-3.41E+00,-1.86E+01,-1.55E+00
2.513735625E0,-3.75E+00,-1.92E+01,-9.00E-01
2.517691706E0,-4.02E+00,-1.97E+01,-4.78E-01
2.521647322E0,-4.27E+00,-2.04E+01,-2.87E-01
2.525602706E0,-4.42E+00,-2.11E+01,-3.80E-02
2.529556937E0,-4.67E+00,-2.18E+01,2.290500104E-1
2.533512552E0,-5.00E+00,-2.27E+01,3.820500076E-1
2.537468552E0,-5.30E+00,-2.34E+01,4.399500191E-1
2.541424697E0,-5.28E+00,-2.43E+01,3.820500076E-1
2.545381159E0,-5.07E+00,-2.51E+01,1.530000120E-1
2.549338390E0,-4.88E+00,-2.58E+01,-2.10E-01
2.553294620E0,-4.86E+00,-2.64E+01,-5.93E-01
2.557250390E0,-5.04E+00,-2.69E+01,-1.40E+00
2.561207005E0,-4.98E+00,-2.69E+01,-2.39E+00
2.565163231E0,-4.54E+00,-2.66E+01,-3.52E+00
2.569119000E0,-4.17E+00,-2.59E+01,-4.84E+00
2.573075154E0,-3.91E+00,-2.50E+01,-6.24E+00
2.577030812E0,-3.94E+00,-2.35E+01,-7.45E+00
2.580986428E0,-4.21E+00,-2.12E+01,-8.08E+00
2.584942735E0,-4.23E+00,-1.90E+01,-8.19E+00
2.588898875E0,-4.08E+00,-1.71E+01,-7.68E+00
2.592854952E0,-3.75E+00,-1.55E+01,-6.63E+00
2.596811491E0,-3.45E+00,-1.40E+01,-5.53E+00
2.600767745E0,-3.39E+00,-1.26E+01,-4.81E+00
2.604724207E0,-3.33E+00,-1.14E+01,-4.61E+00
2.608681130E0,-2.79E+00,-1.04E+01,-4.35E+00
2.612637505E0,-2.24E+00,-9.34E+00,-3.79E+00
2.616594428E0,-1.82E+00,-8.29E+00,-2.91E+00
2.620551043E0,-1.44E+00,-7.35E+00,-2.14E+00
2.624507351E0,-9.95E-01,-6.72E+00,-1.63E+00
2.628463812E0,-4.02E-01,-6.11E+00,-1.21E+00
2.632418197E0,3.250500262E-1,-5.36E+00,-6.12E-01
2.636374356E0,9.379500151E-1,-4.63E+00,-1.91E-02
2.640329510E0,1.302000046E0,-4.04E+00,4.590000212E-1
2.644285664E0,1.321050048E0,-3.48E+00,5.929500461E-1
2.648241826E0,1.243950009E0,-3.03E+00,5.359500051E-1
2.652197903E0,1.263000011E0,-2.68E+00,3.630000055E-1
2.656154442E0,1.378050089E0,-2.16E+00,2.479500175E-1
2.660111678E0,1.551000118E0,-1.61E+00,5.700000376E-2
2.664069447E0,1.588950038E0,-1.19E+00,-1.91E-01
2.668025831E0,1.665000081E0,-7.08E-01,-5.17E-01
2.671982129E0,1.819050074E0,-2.68E-01,-9.38E-01
2.675940206E0,1.914000034E0,1.140000075E-1,-1.23E+00
2.679895821E0,2.009999990E0,4.210500121E-1,-1.46E+00
2.683851909E0,2.029050112E0,6.510000229E-1,-1.59E+00
2.687808063E0,2.047950029E0,9.000000358E-1,-1.67E+00
2.691763986E0,2.086950064E0,1.072050095E0,-1.61E+00
2.695720289E0,2.106000185E0,1.129050016E0,-1.42E+00
2.699675981E0,2.106000185E0,1.243950009E0,-1.21E+00
2.703631674E0,2.125050068E0,1.302000046E0,-9.95E-01
2.707587669E0,2.182049990E0,1.302000046E0,-7.46E-01
2.711543284E0,2.374050140E0,1.302000046E0,-5.36E-01
2.715499053E0,2.488950014E0,1.302000046E0,-4.78E-01
2.719454894E0,2.604000092E0,1.302000046E0,-4.21E-01
2.723410971E0,2.680050135E0,1.378050089E0,-3.06E-01
2.727366971E0,2.776050091E0,1.455000043E0,-2.68E-01
2.731323101E0,2.890950203E0,1.645950079E0,-3.44E-01
2.735278486E0,2.872050047E0,1.645950079E0,-4.78E-01
2.739234178E0,2.853000164E0,1.800000072E0,-6.70E-01
2.743189799E0,2.719050169E0,1.894950032E0,-8.23E-01
2.747145952E0,2.604000092E0,1.990950108E0,-9.19E-01
2.751102029E0,2.392950058E0,2.009999990E0,-8.04E-01
2.755057645E0,2.182049990E0,2.009999990E0,-6.12E-01
2.759013645E0,1.972050071E0,1.972050071E0,-1.91E-01
2.762967952E0,1.665000081E0,1.894950032E0,1.339500099E-1
2.766924222E0,1.378050089E0,1.780050039E0,4.020000100E-1
2.770879915E0,1.225050092E0,1.645950079E0,6.120000482E-1
2.774835453E0,9.949500561E-1,1.551000118E0,8.230500221E-1
2.778790833E0,7.849500179E-1,1.455000043E0,9.570000172E-1
2.782746525E0,6.310500503E-1,1.282050014E0,1.033950090E0
2.786702756E0,4.969500303E-1,1.033950090E0,1.110000014E0
2.790658578E0,4.020000100E-1,8.230500221E-1,1.129050016E0
2.794614886E0,3.250500262E-1,5.170500278E-1,1.014000058E0
2.798571270E0,4.590000212E-1,3.630000055E-1,7.849500179E-1
2.802527289E0,7.459500432E-1,2.869500220E-1,5.359500051E-1
2.806483366E0,1.014000058E0,2.680500150E-1,2.290500104E-1
2.810439597E0,1.168050051E0,2.100000083E-1,-1.91E-02
2.814396823E0,1.186950088E0,1.339500099E-1,-3.63E-01
2.818352207E0,1.243950009E0,1.905000024E-2,-7.46E-01
2.822307130E0,1.225050092E0,-5.70E-02,-1.19E+00
2.826263125E0,1.263000011E0,-1.91E-01,-1.68E+00
2.830218895E0,1.282050014E0,-2.87E-01,-2.07E+00
2.834175049E0,1.321050048E0,-3.63E-01,-2.41E+00
2.838131270E0,1.417050123E0,-4.59E-01,-2.64E+00
2.842087347E0,1.435950041E0,-5.55E-01,-2.70E+00
2.846043117E0,1.455000043E0,-7.08E-01,-2.58E+00
2.849999409E0,1.417050123E0,-8.80E-01,-2.22E+00
2.853955871E0,1.359000087E0,-9.38E-01,-1.63E+00
2.857912794E0,1.243950009E0,-1.01E+00,-9.57E-01
2.861868871E0,1.168050051E0,-1.09E+00,-3.25E-01
2.865823794E0,1.072050095E0,-1.15E+00,1.140000075E-1
2.869780179E0,9.190500379E-1,-1.15E+00,3.439500034E-1
2.873736491E0,8.230500221E-1,-1.11E+00,4.780500233E-1
2.877692645E0,6.510000229E-1,-1.07E+00,8.040000200E-1
2.881649030E0,4.780500233E-1,-1.13E+00,1.206000090E0
2.885605342E0,2.869500220E-1,-1.13E+00,1.570050120E0
2.889561650E0,1.530000120E-1,-1.21E+00,1.588950038E0
2.893518496E0,3.795000166E-2,-1.32E+00,1.339950085E0
2.897474280E0,0.000000000E0,-1.32E+00,1.072050095E0
2.901432433E0,-1.91E-02,-1.47E+00,5.740500093E-1
2.905390664E0,-1.72E-01,-1.68E+00,-9.00E-01
2.909347198E0,-3.63E-01,-2.45E+00,-5.94E+00
2.913303121E0,-2.68E-01,-3.71E+00,-9.59E+00
2.917258813E0,-1.72E-01,-4.81E+00,-6.28E+00
2.921214520E0,-3.25E-01,-5.99E+00,-2.22E+00
2.925168828E0,-9.38E-01,-7.26E+00,1.378050089E0
2.929125059E0,-1.89E+00,-8.33E+00,4.021049976E0
2.933081078E0,-3.08E+00,-9.48E+00,5.266050339E0
2.937037539E0,-4.35E+00,-1.12E+01,5.284950256E0
2.940994232E0,-5.73E+00,-1.42E+01,4.747950077E0
2.944950857E0,-7.29E+00,-1.82E+01,4.288949966E0
2.948907549E0,-9.13E+00,-2.26E+01,3.541950226E0
2.952864626E0,-1.15E+01,-2.77E+01,9.379500151E-1
2.956821837E0,-1.22E+01,-3.19E+01,-1.26E+00
2.960778376E0,-1.02E+01,-3.28E+01,-1.05E+00
2.964732991E0,-7.91E+00,-3.17E+01,1.720500141E-1
2.968688688E0,-7.08E+00,-3.04E+01,1.168050051E0
2.972644458E0,-7.35E+00,-2.88E+01,1.741950035E0
2.976600458E0,-7.77E+00,-2.69E+01,2.106000185E0
2.980555770E0,-7.95E+00,-2.46E+01,2.757000208E0
2.984510924E0,-7.95E+00,-2.22E+01,3.217050076E0
2.988466616E0,-8.10E+00,-2.03E+01,3.043950081E0
2.992422832E0,-8.75E+00,-1.99E+01,1.723050117E0
2.996380678E0,-9.17E+00,-2.12E+01,-2.36E+00
3.000336525E0,-7.83E+00,-2.46E+01,-1.04E+01
3.004292453E0,-5.84E+00,-2.83E+01,-1.97E+01
3.008248606E0,-2.70E+00,-3.12E+01,-2.41E+01
3.012203145E0,9.379500151E-1,-3.16E+01,-2.32E+01
3.016159208E0,2.641950130E0,-3.13E+01,-1.72E+01
3.020115362E0,4.423050404E0,-2.99E+01,-8.06E+00
3.024071054E0,6.337950230E0,-2.78E+01,-9.57E-01
3.028026126E0,5.341950417E0,-2.52E+01,4.117050171E0
3.031982357E0,1.588950038E0,-2.30E+01,6.453000069E0
3.035939741E0,-2.47E+00,-2.04E+01,5.572050095E0
3.039895597E0,-4.44E+00,-1.80E+01,2.355000019E0
3.043853366E0,-5.99E+00,-1.49E+01,-1.59E+00
3.047809135E0,-7.12E+00,-1.21E+01,-5.11E+00
3.051765005E0,-6.63E+00,-1.06E+01,-6.86E+00
3.055721159E0,-5.57E+00,-1.00E+01,-5.78E+00
3.059677467E0,-4.52E+00,-1.01E+01,-2.95E+00
3.063631386E0,-3.89E+00,-9.98E+00,1.720500141E-1
3.067586617E0,-3.68E+00,-9.84E+00,2.470050097E0
3.071542386E0,-3.31E+00,-1.01E+01,4.135950089E0
3.075498458E0,-3.20E+00,-1.01E+01,4.806000233E0
3.079454458E0,-3.89E+00,-1.00E+01,4.786950111E0
3.083410689E0,-4.59E+00,-9.98E+00,4.441950321E0
3.087367130E0,-4.75E+00,-9.94E+00,3.943950176E0
3.091324053E0,-4.75E+00,-9.77E+00,3.351000071E0
3.095280130E0,-4.50E+00,-9.42E+00,2.776050091E0
3.099236827E0,-4.50E+00,-9.06E+00,2.278050184E0
3.103193058E0,-5.11E+00,-8.62E+00,1.741950035E0
3.107149751E0,-6.17E+00,-8.00E+00,1.225050092E0
3.111105684E0,-6.91E+00,-7.49E+00,8.040000200E-1
3.115061453E0,-7.35E+00,-7.16E+00,4.399500191E-1
3.119016914E0,-7.51E+00,-6.80E+00,1.909500062E-1
3.122973130E0,-7.22E+00,-6.49E+00,5.700000376E-2
3.126929515E0,-6.74E+00,-6.09E+00,-9.50E-02
3.130885438E0,-6.07E+00,-5.67E+00,-1.14E-01
3.134840852E0,-5.44E+00,-5.17E+00,-9.50E-02
3.138796621E0,-4.69E+00,-4.69E+00,-1.72E-01
3.142753159E0,-4.02E+00,-4.37E+00,-2.10E-01
3.146709246E0,-3.18E+00,-4.17E+00,-3.44E-01
3.150665477E0,-2.58E+00,-3.81E+00,-5.17E-01
3.154621400E0,-2.05E+00,-3.48E+00,-7.85E-01
3.158577015E0,-1.68E+00,-3.24E+00,-1.23E+00
3.162532862E0,-1.42E+00,-3.04E+00,-2.11E+00
3.166489092E0,-1.30E+00,-3.03E+00,-3.27E+00
3.170444794E0,-1.28E+00,-3.16E+00,-4.40E+00
3.174400409E0,-1.38E+00,-3.43E+00,-5.46E+00
3.178356640E0,-1.42E+00,-3.89E+00,-6.38E+00
3.182312607E0,-1.42E+00,-4.33E+00,-7.10E+00
3.186269222E0,-1.42E+00,-4.79E+00,-6.89E+00
3.190225992E0,-1.53E+00,-5.30E+00,-5.96E+00
3.194181852E0,-1.63E+00,-5.69E+00,-4.81E+00
3.198137775E0,-1.65E+00,-6.07E+00,-3.62E+00
3.202093929E0,-1.49E+00,-6.43E+00,-2.57E+00
3.206050164E0,-1.05E+00,-6.84E+00,-1.74E+00
3.210006472E0,-5.36E-01,-7.26E+00,-1.30E+00
3.213962780E0,-2.10E-01,-7.70E+00,-1.19E+00
3.217917342E0,5.700000376E-2,-8.18E+00,-1.26E+00
3.221873265E0,3.250500262E-1,-8.66E+00,-1.26E+00
3.225828881E0,6.310500503E-1,-9.09E+00,-1.09E+00
3.229785178E0,8.230500221E-1,-9.65E+00,-1.09E+00
3.233740948E0,9.379500151E-1,-1.02E+01,-1.23E+00
3.237696409E0,1.014000058E0,-1.08E+01,-1.40E+00
3.241652462E0,1.053000093E0,-1.14E+01,-1.34E+00
3.245608770E0,1.243950009E0,-1.17E+01,-1.21E+00
3.249564539E0,1.665000081E0,-1.18E+01,-9.57E-01
3.253520698E0,2.086950064E0,-1.18E+01,-8.42E-01
3.257476390E0,2.584950209E0,-1.18E+01,-6.89E-01
3.261432775E0,3.139950037E0,-1.19E+01,-7.85E-01
3.265388775E0,3.541950226E0,-1.21E+01,-1.01E+00
3.269344852E0,3.810000181E0,-1.23E+01,-1.19E+00
3.273300775E0,4.021049976E0,-1.24E+01,-1.32E+00
3.277256789E0,4.212000370E0,-1.23E+01,-1.38E+00
3.281212943E0,4.365000248E0,-1.21E+01,-1.70E+00
3.285169097E0,4.404000282E0,-1.18E+01,-1.99E+00
3.289125399E0,4.251000404E0,-1.13E+01,-2.32E+00
3.293081630E0,3.943950176E0,-1.06E+01,-2.43E+00
3.297037476E0,3.465000153E0,-9.90E+00,-2.57E+00
3.300993712E0,2.872050047E0,-9.17E+00,-2.64E+00
3.304949712E0,2.239950180E0,-8.73E+00,-2.74E+00
3.308905404E0,1.608000040E0,-8.41E+00,-2.79E+00
3.312860933E0,1.147950053E0,-8.12E+00,-2.79E+00
3.316816318E0,8.800500631E-1,-7.87E+00,-2.85E+00
3.320771164E0,5.929500461E-1,-7.62E+00,-2.85E+00
3.324726063E0,4.590000212E-1,-7.35E+00,-2.93E+00
3.328681678E0,4.780500233E-1,-7.07E+00,-3.08E+00
3.332637678E0,5.359500051E-1,-6.84E+00,-3.04E+00
3.336594217E0,6.889500618E-1,-6.66E+00,-2.99E+00
3.340550986E0,8.610000610E-1,-6.57E+00,-2.89E+00
3.344508063E0,1.072050095E0,-6.59E+00,-2.72E+00
3.348464678E0,1.168050051E0,-6.66E+00,-2.47E+00
3.352421371E0,1.147950053E0,-6.74E+00,-2.30E+00
3.356377909E0,9.760500193E-1,-6.72E+00,-2.16E+00
3.360334131E0,7.270500064E-1,-6.68E+00,-2.22E+00
3.364290362E0,4.590000212E-1,-6.64E+00,-2.30E+00
3.368246977E0,3.630000055E-1,-6.72E+00,-2.41E+00
3.372203620E0,2.869500220E-1,-6.91E+00,-2.87E+00
3.376159851E0,3.439500034E-1,-7.10E+00,-3.37E+00
3.380116005E0,5.359500051E-1,-7.26E+00,-3.56E+00
3.384072227E0,8.230500221E-1,-7.49E+00,-3.48E+00
3.388028304E0,1.053000093E0,-7.76E+00,-3.10E+00
3.391984458E0,1.206000090E0,-8.08E+00,-2.45E+00
3.395940362E0,1.435950041E0,-8.39E+00,-1.59E+00
3.399896362E0,1.780050039E0,-8.58E+00,-8.04E-01
3.403852131E0,1.972050071E0,-8.66E+00,-1.72E-01
3.407806962E0,2.239950180E0,-8.52E+00,4.210500121E-1
3.411763424E0,2.431050062E0,-8.23E+00,8.040000200E-1
3.415719654E0,2.374050140E0,-7.98E+00,8.610000610E-1
3.419676212E0,2.106000185E0,-7.70E+00,7.080000043E-1
3.423632827E0,1.378050089E0,-7.62E+00,4.399500191E-1
3.427591596E0,1.339500099E-1,-7.51E+00,-6.51E-01
3.431549290E0,-9.19E-01,-7.26E+00,-2.57E+00
3.435505521E0,-1.68E+00,-6.95E+00,-4.65E+00
3.439461674E0,-2.05E+00,-6.89E+00,-6.07E+00
3.443417735E0,-2.07E+00,-7.08E+00,-6.70E+00
3.447374351E0,-1.82E+00,-7.51E+00,-6.26E+00
3.451330812E0,-1.61E+00,-8.06E+00,-5.00E+00
3.455287505E0,-1.61E+00,-8.64E+00,-3.31E+00
3.459244274E0,-1.61E+00,-9.15E+00,-1.72E+00
3.463200658E0,-1.65E+00,-9.67E+00,-6.51E-01
3.467156817E0,-1.74E+00,-1.03E+01,-1.91E-02
3.471112279E0,-1.80E+00,-1.09E+01,3.250500262E-1
3.475068510E0,-1.65E+00,-1.15E+01,2.290500104E-1
3.479025889E0,-1.42E+00,-1.20E+01,-6.12E-01
3.482981812E0,-1.36E+00,-1.25E+01,-1.86E+00
3.486938505E0,-1.36E+00,-1.29E+01,-3.03E+00
3.490894653E0,-1.32E+00,-1.31E+01,-3.50E+00
3.494851038E0,-1.57E+00,-1.33E+01,-3.24E+00
3.498807577E0,-2.11E+00,-1.33E+01,-2.72E+00
3.502763985E0,-2.45E+00,-1.34E+01,-2.30E+00
3.506720754E0,-2.91E+00,-1.36E+01,-1.76E+00
3.510676754E0,-2.97E+00,-1.37E+01,-1.23E+00
3.514632592E0,-2.70E+00,-1.37E+01,-6.89E-01
3.518599899E0,-2.39E+00,-1.38E+01,-1.91E-02
3.522544207E0,-2.11E+00,-1.41E+01,4.399500191E-1
3.526500650E0,-1.88E+00,-1.45E+01,3.820500076E-1
3.530458419E0,-1.67E+00,-1.50E+01,-1.91E-01
3.534415573E0,-1.86E+00,-1.57E+01,-9.95E-01
3.538372337E0,-2.51E+00,-1.65E+01,-1.47E+00
3.542328952E0,-3.06E+00,-1.72E+01,-1.57E+00
3.546285414E0,-3.75E+00,-1.81E+01,-1.23E+00
3.550242269E0,-4.44E+00,-1.90E+01,-6.12E-01
3.554198654E0,-4.77E+00,-2.03E+01,-1.14E-01
3.558154038E0,-5.28E+00,-2.15E+01,5.359500051E-1
3.562110587E0,-5.73E+00,-2.26E+01,7.849500179E-1
3.566067279E0,-5.57E+00,-2.33E+01,2.479500175E-1
3.570025279E0,-6.38E+00,-2.46E+01,-3.06E-01
3.573981966E0,-6.76E+00,-2.55E+01,-7.27E-01
3.577938505E0,-6.74E+00,-2.61E+01,-9.95E-01
3.581895043E0,-6.72E+00,-2.64E+01,-9.00E-01
3.585851847E0,-7.05E+00,-2.65E+01,-5.74E-01
3.589808693E0,-7.22E+00,-2.63E+01,-4.02E-01
3.593765000E0,-7.24E+00,-2.59E+01,-2.87E-01
3.597721423E0,-7.08E+00,-2.55E+01,-1.72E-01
3.601678038E0,-6.64E+00,-2.50E+01,-1.14E-01
3.605634269E0,-6.20E+00,-2.44E+01,-1.72E-01
3.609590322E0,-5.96E+00,-2.39E+01,-4.21E-01
3.613547168E0,-5.82E+00,-2.33E+01,-6.89E-01
3.617503937E0,-5.88E+00,-2.27E+01,-1.15E+00
3.621460019E0,-5.84E+00,-2.20E+01,-1.68E+00
3.625416327E0,-5.53E+00,-2.11E+01,-2.13E+00
3.629372635E0,-5.27E+00,-2.03E+01,-2.60E+00
3.633329722E0,-5.00E+00,-1.96E+01,-3.10E+00
3.637286491E0,-4.88E+00,-1.89E+01,-3.68E+00
3.641243106E0,-4.75E+00,-1.81E+01,-4.38E+00
3.645199496E0,-4.65E+00,-1.70E+01,-5.21E+00
3.649155650E0,-4.29E+00,-1.58E+01,-5.96E+00
3.653111496E0,-3.60E+00,-1.44E+01,-6.11E+00
3.657067794E0,-2.74E+00,-1.29E+01,-5.82E+00
3.661023717E0,-2.09E+00,-1.16E+01,-5.07E+00
3.664980255E0,-1.78E+00,-1.08E+01,-3.89E+00
3.668936515E0,-1.40E+00,-9.82E+00,-3.01E+00
3.672892361E0,-1.11E+00,-8.75E+00,-2.41E+00
3.676848669E0,-7.85E-01,-7.72E+00,-1.59E+00
3.680804823E0,-1.91E-01,-6.72E+00,-9.76E-01
3.684759669E0,6.510000229E-1,-5.71E+00,-6.89E-01
3.688715669E0,1.551000118E0,-4.44E+00,-6.31E-01
3.692671963E0,2.239950180E0,-3.43E+00,-7.08E-01
3.696628193E0,2.757000208E0,-2.62E+00,-4.21E-01
3.700584809E0,2.986950159E0,-1.88E+00,-3.44E-01
3.704540953E0,3.196950197E0,-1.34E+00,-2.68E-01
3.708497030E0,3.292950153E0,-8.80E-01,-2.10E-01
3.712453107E0,3.196950197E0,-5.17E-01,-3.80E-02
3.716408886E0,3.292950153E0,-5.70E-02,1.909500062E-1
3.720366963E0,3.217050076E0,2.290500104E-1,0.000000000E0
3.724324501E0,3.082950115E0,4.020000100E-1,-3.06E-01
3.728280708E0,3.063000202E0,5.740500093E-1,-5.36E-01
3.732236477E0,3.082950115E0,7.849500179E-1,-7.65E-01
3.736192631E0,3.082950115E0,8.610000610E-1,-1.03E+00
3.740148703E0,3.006000042E0,1.014000058E0,-1.23E+00
3.744104318E0,3.043950081E0,1.072050095E0,-1.40E+00
3.748059934E0,3.063000202E0,1.225050092E0,-1.68E+00
3.752015160E0,3.063000202E0,1.359000087E0,-2.09E+00
3.755970544E0,3.121050119E0,1.531050086E0,-2.60E+00
3.759926621E0,3.139950037E0,1.665000081E0,-2.95E+00
3.763882703E0,3.217050076E0,1.741950035E0,-3.16E+00
3.767838703E0,3.255000114E0,1.723050117E0,-3.12E+00
3.771794626E0,3.331050158E0,1.627050042E0,-2.97E+00
3.775751001E0,3.370050192E0,1.455000043E0,-2.72E+00
3.779707001E0,3.388950109E0,1.186950088E0,-2.47E+00
3.783663155E0,3.388950109E0,9.570000172E-1,-2.24E+00
3.787619352E0,3.312000275E0,7.080000043E-1,-1.91E+00
3.791575428E0,2.814000130E0,3.060000241E-1,-1.61E+00
3.795530275E0,2.163000107E0,-5.70E-02,-1.05E+00
3.799486500E0,1.704000115E0,-3.44E-01,-5.74E-01
3.803442424E0,1.474050045E0,-5.55E-01,-1.72E-01
3.807397116E0,1.225050092E0,-6.51E-01,2.290500104E-1
3.811353434E0,1.129050016E0,-6.89E-01,4.780500233E-1
3.815310049E0,1.033950090E0,-7.27E-01,6.510000229E-1
3.819266049E0,1.014000058E0,-6.31E-01,7.650000453E-1
3.823222038E0,1.053000093E0,-4.78E-01,8.230500221E-1
3.827178192E0,1.072050095E0,-3.44E-01,8.040000200E-1
3.831134499E0,1.090950012E0,-2.68E-01,7.650000453E-1
3.835090106E0,1.072050095E0,-2.29E-01,6.510000229E-1
3.839045644E0,9.949500561E-1,-2.10E-01,6.310500503E-1
3.843001183E0,9.190500379E-1,-1.53E-01,6.120000482E-1
3.846957567E0,8.419500589E-1,-1.91E-02,4.780500233E-1
3.850914798E0,9.000000358E-1,7.605000585E-2,3.630000055E-1
3.854870491E0,9.190500379E-1,2.290500104E-1,2.680500150E-1
3.858826543E0,9.000000358E-1,3.439500034E-1,1.720500141E-1
3.862782313E0,8.800500631E-1,3.630000055E-1,1.140000075E-1
3.866738313E0,8.419500589E-1,4.210500121E-1,5.700000376E-2
3.870694332E0,7.459500432E-1,4.210500121E-1,1.905000024E-2
3.874650870E0,6.510000229E-1,4.020000100E-1,0.000000000E0
3.878608178E0,5.740500093E-1,4.020000100E-1,-7.61E-02
3.882564394E0,4.590000212E-1,3.820500076E-1,-9.50E-02
3.886520394E0,2.869500220E-1,3.630000055E-1,-7.61E-02
3.890475471E0,1.339500099E-1,2.290500104E-1,-1.91E-02
3.894429624E0,1.905000024E-2,5.700000376E-2,5.700000376E-2
3.898385548E0,-1.91E-02,-5.70E-02,1.339500099E-1
3.902341394E0,-1.91E-02,-1.91E-01,1.720500141E-1
3.906297313E0,-1.91E-02,-3.25E-01,2.100000083E-1
3.910253313E0,-3.80E-02,-4.21E-01,2.479500175E-1
3.914208697E0,-5.70E-02,-5.17E-01,2.100000083E-1
3.918164351E0,-5.70E-02,-5.93E-01,1.909500062E-1
3.922120351E0,-3.80E-02,-6.89E-01,1.720500141E-1
3.926074966E0,-1.91E-02,-8.04E-01,1.720500141E-1
3.930030337E0,0.000000000E0,-8.61E-01,1.909500062E-1
3.933985491E0,1.905000024E-2,-1.03E+00,2.680500150E-1
3.937941029E0,3.795000166E-2,-1.21E+00,2.680500150E-1
3.941896568E0,9.495000541E-2,-1.44E+00,2.100000083E-1
3.945852183E0,9.495000541E-2,-1.68E+00,2.290500104E-1
3.949807568E0,5.700000376E-2,-2.05E+00,3.060000241E-1
3.953762884E0,0.000000000E0,-2.57E+00,3.820500076E-1
3.957719346E0,-9.50E-02,-3.26E+00,4.210500121E-1
3.961674577E0,-3.25E-01,-4.14E+00,5.740500093E-1
3.965629659E0,-7.27E-01,-5.23E+00,7.459500432E-1
3.969585582E0,-1.23E+00,-6.57E+00,9.760500193E-1
3.973541582E0,-1.89E+00,-8.37E+00,1.147950053E0
3.977497572E0,-2.70E+00,-1.06E+01,1.321050048E0
3.981453495E0,-3.69E+00,-1.33E+01,1.302000046E0
3.985409726E0,-4.67E+00,-1.65E+01,9.949500561E-1
3.989365884E0,-5.61E+00,-2.00E+01,4.210500121E-1
3.993323500E0,-6.13E+00,-2.39E+01,-1.30E+00
3.997279577E0,-6.74E+00,-2.82E+01,-4.58E+00
4.001235500E0,-6.51E+00,-3.22E+01,-8.08E+00
4.005191423E0,-6.05E+00,-3.43E+01,-8.44E+00
4.009147038E0,-6.64E+00,-3.46E+01,-5.94E+00
4.013102639E0,-7.31E+00,-3.21E+01,-2.51E+00
4.017057023E0,-8.62E+00,-2.63E+01,4.020000100E-1
4.021012716E0,-9.75E+00,-2.13E+01,2.106000185E0
4.024968567E0,-9.17E+00,-1.80E+01,2.776050091E0
4.028924567E0,-7.53E+00,-1.55E+01,2.890950203E0
4.032879952E0,-6.38E+00,-1.37E+01,3.082950115E0
4.036835803E0,-5.48E+00,-1.24E+01,3.102000237E0
4.040791649E0,-4.88E+00,-1.17E+01,2.776050091E0
4.044747264E0,-4.31E+00,-1.16E+01,2.527050018E0
4.048703197E0,-4.31E+00,-1.25E+01,2.545950174E0
4.052659120E0,-4.50E+00,-1.44E+01,2.125050068E0
4.056616505E0,-3.66E+00,-1.73E+01,-2.68E-01
4.060572712E0,-2.26E+00,-2.14E+01,-5.32E+00
4.064528712E0,-7.85E-01,-2.58E+01,-1.15E+01
4.068482943E0,2.479500175E-1,-2.92E+01,-1.51E+01
4.072438798E0,4.590000212E-1,-3.07E+01,-1.37E+01
4.076395875E0,-9.50E-02,-3.02E+01,-9.36E+00
4.080351644E0,-9.76E-01,-2.83E+01,-4.94E+00
4.084307355E0,-1.93E+00,-2.57E+01,-3.41E+00
4.088263124E0,-2.22E+00,-2.27E+01,-3.37E+00
4.092219048E0,-3.31E+00,-1.95E+01,-3.69E+00
4.096174890E0,-4.71E+00,-1.67E+01,-4.33E+00
4.100131351E0,-5.40E+00,-1.47E+01,-4.54E+00
4.104087121E0,-5.13E+00,-1.32E+01,-3.62E+00
4.108043274E0,-4.75E+00,-1.25E+01,-1.89E+00
4.111997197E0,-4.40E+00,-1.20E+01,1.530000120E-1
4.115953044E0,-4.19E+00,-1.15E+01,1.837950110E0
4.119908909E0,-4.23E+00,-1.12E+01,2.737950087E0
4.123864986E0,-4.58E+00,-1.10E+01,2.986950159E0
4.127820447E0,-5.04E+00,-1.10E+01,2.968050241E0
4.131776140E0,-5.42E+00,-1.08E+01,2.661000013E0
4.135731832E0,-5.63E+00,-1.03E+01,2.239950180E0
4.139687832E0,-5.71E+00,-9.92E+00,1.800000072E0
4.143643894E0,-5.99E+00,-9.78E+00,1.417050123E0
4.147599202E0,-6.41E+00,-9.80E+00,1.129050016E0
4.151554048E0,-6.95E+00,-9.57E+00,8.419500589E-1
4.155509341E0,-7.43E+00,-9.21E+00,5.740500093E-1
4.159465188E0,-7.70E+00,-8.75E+00,3.060000241E-1
4.163421111E0,-7.81E+00,-8.29E+00,5.700000376E-2
4.167378485E0,-7.68E+00,-7.68E+00,-1.72E-01
4.171334485E0,-7.49E+00,-7.14E+00,-1.91E-01
4.175290562E0,-7.20E+00,-6.63E+00,-1.91E-01
4.179246500E0,-6.72E+00,-6.13E+00,-1.14E-01
4.183202808E0,-6.11E+00,-5.61E+00,-9.50E-02
4.187159039E0,-5.51E+00,-5.27E+00,-4.97E-01
4.191115183E0,-4.86E+00,-4.94E+00,-1.11E+00
4.195071337E0,-4.37E+00,-4.63E+00,-1.76E+00
4.199027644E0,-3.83E+00,-4.61E+00,-2.34E+00
4.202984054E0,-3.31E+00,-4.73E+00,-2.76E+00
4.206940208E0,-2.76E+00,-4.94E+00,-2.87E+00
4.210896285E0,-2.28E+00,-5.21E+00,-2.74E+00
4.214852679E0,-1.88E+00,-5.48E+00,-2.49E+00
4.218808833E0,-1.47E+00,-5.69E+00,-2.16E+00
4.222764602E0,-1.11E+00,-5.86E+00,-1.82E+00
4.226720751E0,-8.23E-01,-6.03E+00,-1.42E+00
4.230676751E0,-5.93E-01,-6.26E+00,-1.05E+00
4.234632597E0,-4.21E-01,-6.47E+00,-6.31E-01
4.238588582E0,-2.68E-01,-6.78E+00,-3.82E-01
4.242543121E0,1.905000024E-2,-6.89E+00,-1.91E-01
4.246497275E0,9.495000541E-2,-6.97E+00,0.000000000E0
4.250452900E0,2.869500220E-1,-7.07E+00,5.700000376E-2
4.254409439E0,4.399500191E-1,-7.26E+00,5.700000376E-2
4.258365592E0,5.740500093E-1,-7.39E+00,3.795000166E-2
4.262322140E0,6.510000229E-1,-7.58E+00,3.795000166E-2
4.266278294E0,8.230500221E-1,-7.72E+00,1.905000024E-2
4.270234678E0,8.800500631E-1,-7.85E+00,0.000000000E0
4.274192362E0,1.014000058E0,-7.98E+00,-3.80E-02
4.278148439E0,1.243950009E0,-8.19E+00,-5.70E-02
4.282104131E0,1.339950085E0,-8.39E+00,-7.61E-02
4.286060145E0,1.492950082E0,-8.60E+00,-2.10E-01
4.290016683E0,1.741950035E0,-8.79E+00,-2.48E-01
4.293972914E0,2.125050068E0,-9.06E+00,-4.97E-01
4.297928593E0,2.584950209E0,-9.36E+00,-7.85E-01
4.301884823E0,3.025050163E0,-9.67E+00,-1.11E+00
4.305840900E0,3.523050070E0,-9.98E+00,-1.59E+00
4.309797121E0,3.982950211E0,-1.03E+01,-2.07E+00
4.313753659E0,4.365000248E0,-1.05E+01,-2.74E+00
4.317710275E0,4.576050282E0,-1.07E+01,-3.39E+00
4.321666602E0,4.633950233E0,-1.09E+01,-4.23E+00
4.325622986E0,4.500000000E0,-1.08E+01,-4.94E+00
4.329579294E0,4.288949966E0,-1.07E+01,-5.06E+00
4.333535516E0,3.963000298E0,-1.04E+01,-4.58E+00
4.337491670E0,3.427050114E0,-9.90E+00,-3.83E+00
4.341447746E0,2.872050047E0,-9.46E+00,-3.01E+00
4.345404140E0,2.392950058E0,-9.08E+00,-2.24E+00
4.349360448E0,1.876050115E0,-8.73E+00,-1.68E+00
4.353316832E0,1.417050123E0,-8.43E+00,-1.34E+00
4.357273150E0,1.147950053E0,-8.14E+00,-1.13E+00
4.361229842E0,1.072050095E0,-7.89E+00,-9.76E-01
4.365186535E0,9.000000358E-1,-7.58E+00,-9.57E-01
4.369142294E0,4.590000212E-1,-7.28E+00,-1.28E+00
4.373099294E0,-7.61E-02,-7.05E+00,-1.88E+00
4.377054986E0,-5.17E-01,-6.84E+00,-2.74E+00
4.381009991E0,-7.46E-01,-6.70E+00,-3.39E+00
4.384964838E0,-8.61E-01,-6.55E+00,-3.58E+00
4.388920299E0,-9.38E-01,-6.45E+00,-3.12E+00
4.392875823E0,-9.38E-01,-6.32E+00,-2.39E+00
4.396831592E0,-9.95E-01,-6.32E+00,-1.74E+00
4.400787207E0,-1.11E+00,-6.49E+00,-1.28E+00
4.404742813E0,-1.24E+00,-6.70E+00,-1.11E+00
4.408698582E0,-1.21E+00,-6.99E+00,-1.17E+00
4.412655197E0,-1.11E+00,-7.26E+00,-1.13E+00
4.416611192E0,-9.19E-01,-7.51E+00,-9.19E-01
4.420567808E0,-7.85E-01,-7.76E+00,-7.46E-01
4.424524423E0,-5.74E-01,-8.00E+00,-5.17E-01
4.428480736E0,-2.29E-01,-8.25E+00,-3.25E-01
4.432435890E0,-1.91E-02,-8.60E+00,-7.61E-02
4.436391120E0,9.495000541E-2,-8.88E+00,1.720500141E-1
4.440347664E0,2.680500150E-1,-9.11E+00,4.590000212E-1
4.444303971E0,3.820500076E-1,-9.29E+00,8.419500589E-1
4.448260433E0,4.780500233E-1,-9.44E+00,1.110000014E0
4.452216582E0,5.359500051E-1,-9.50E+00,9.949500561E-1
4.456173274E0,5.550000072E-1,-9.50E+00,2.869500220E-1
4.460130736E0,4.590000212E-1,-9.38E+00,-4.59E-01
4.464087437E0,5.700000376E-2,-9.08E+00,-1.15E+00
4.468044745E0,-4.97E-01,-8.81E+00,-1.61E+00
4.472001283E0,-1.03E+00,-8.52E+00,-2.05E+00
4.475957664E0,-1.51E+00,-8.29E+00,-2.47E+00
4.479913433E0,-1.88E+00,-8.12E+00,-2.78E+00
4.483869125E0,-2.01E+00,-7.95E+00,-2.66E+00
4.487824760E0,-2.05E+00,-7.85E+00,-2.20E+00
4.491780529E0,-1.95E+00,-7.87E+00,-1.70E+00
4.495736144E0,-1.70E+00,-8.04E+00,-1.38E+00
4.499692092E0,-1.38E+00,-8.27E+00,-1.21E+00
4.503647938E0,-1.13E+00,-8.71E+00,-1.13E+00
4.507603784E0,-8.04E-01,-9.23E+00,-1.05E+00
4.511560394E0,-4.78E-01,-9.69E+00,-8.61E-01
4.515516240E0,-1.91E-01,-1.01E+01,-8.42E-01
4.519472625E0,-9.50E-02,-1.05E+01,-1.11E+00
4.523428962E0,-3.80E-02,-1.10E+01,-1.95E+00
4.527385423E0,-1.14E-01,-1.15E+01,-3.18E+00
4.531341731E0,-3.25E-01,-1.19E+01,-4.56E+00
4.535298351E0,-4.40E-01,-1.23E+01,-5.48E+00
4.539254967E0,-7.27E-01,-1.25E+01,-5.65E+00
4.543212121E0,-1.28E+00,-1.27E+01,-5.48E+00
4.547169058E0,-1.72E+00,-1.28E+01,-5.25E+00
4.551125827E0,-1.95E+00,-1.30E+01,-4.92E+00
4.555082289E0,-2.30E+00,-1.30E+01,-4.69E+00
4.559039130E0,-2.66E+00,-1.28E+01,-4.16E+00
4.562995591E0,-2.91E+00,-1.25E+01,-3.56E+00
4.566952360E0,-2.93E+00,-1.25E+01,-3.08E+00
4.570909365E0,-2.72E+00,-1.25E+01,-2.34E+00
4.574866135E0,-2.62E+00,-1.27E+01,-1.47E+00
4.578822981E0,-2.62E+00,-1.30E+01,-6.12E-01
4.582779476E0,-2.53E+00,-1.37E+01,-5.70E-02
4.586734630E0,-2.49E+00,-1.44E+01,1.339500099E-1
4.590691400E0,-2.32E+00,-1.53E+01,1.339500099E-1
4.594649861E0,-2.20E+00,-1.62E+01,-3.80E-02
4.598607169E0,-2.30E+00,-1.71E+01,-4.02E-01
4.602563861E0,-2.47E+00,-1.81E+01,-9.76E-01
4.606521184E0,-2.68E+00,-1.91E+01,-1.51E+00
4.610477799E0,-3.04E+00,-2.00E+01,-1.88E+00
4.614434492E0,-3.22E+00,-2.10E+01,-1.91E+00
4.618391347E0,-3.41E+00,-2.19E+01,-1.47E+00
4.622348193E0,-3.43E+00,-2.25E+01,-8.04E-01
4.626304501E0,-3.66E+00,-2.30E+01,-1.72E-01
4.630259760E0,-3.96E+00,-2.32E+01,1.339500099E-1
4.634217683E0,-4.19E+00,-2.33E+01,5.700000376E-2
4.638176068E0,-4.14E+00,-2.32E+01,-1.53E-01
4.642132597E0,-3.89E+00,-2.29E+01,-2.48E-01
4.646089367E0,-3.75E+00,-2.26E+01,-2.10E-01
4.650046213E0,-3.68E+00,-2.23E+01,-1.72E-01
4.654002487E0,-3.58E+00,-2.20E+01,-1.34E-01
4.657956948E0,-3.62E+00,-2.15E+01,1.905000024E-2
4.661913179E0,-3.47E+00,-2.15E+01,7.605000585E-2
4.665869497E0,-3.54E+00,-2.15E+01,1.720500141E-1
4.669825958E0,-3.60E+00,-2.15E+01,2.100000083E-1
4.673783112E0,-3.60E+00,-2.16E+01,1.905000024E-2
4.677740804E0,-3.43E+00,-2.17E+01,-2.48E-01
4.681697112E0,-3.37E+00,-2.18E+01,-5.93E-01
4.685653035E0,-3.27E+00,-2.18E+01,-8.61E-01
4.689608626E0,-2.99E+00,-2.16E+01,-1.13E+00
4.693564626E0,-2.74E+00,-2.09E+01,-1.68E+00
4.697520934E0,-2.36E+00,-2.00E+01,-2.53E+00
4.701477545E0,-2.28E+00,-1.89E+01,-3.45E+00
4.705434622E0,-2.51E+00,-1.77E+01,-4.29E+00
4.709391314E0,-2.78E+00,-1.65E+01,-4.98E+00
4.713347453E0,-2.78E+00,-1.52E+01,-5.69E+00
4.717303607E0,-2.83E+00,-1.37E+01,-6.34E+00
4.721259683E0,-2.87E+00,-1.24E+01,-6.66E+00
4.725215449E0,-2.81E+00,-1.11E+01,-6.28E+00
4.729171910E0,-2.81E+00,-9.86E+00,-5.42E+00
4.733128064E0,-2.85E+00,-8.69E+00,-4.48E+00
4.737084372E0,-2.83E+00,-7.62E+00,-3.52E+00
4.741040526E0,-2.58E+00,-6.57E+00,-2.68E+00
4.744996295E0,-2.22E+00,-5.67E+00,-1.99E+00
4.748951612E0,-1.74E+00,-5.00E+00,-1.59E+00
4.752907150E0,-1.09E+00,-4.35E+00,-1.42E+00
4.756862919E0,-5.55E-01,-3.77E+00,-1.47E+00
4.760819039E0,-5.70E-02,-3.26E+00,-1.49E+00
4.764774270E0,4.780500233E-1,-2.68E+00,-1.42E+00
4.768730578E0,1.072050095E0,-2.03E+00,-1.30E+00
4.772687092E0,1.723050117E0,-1.38E+00,-1.32E+00
4.776643323E0,2.182049990E0,-8.04E-01,-1.30E+00
4.780599400E0,2.545950174E0,-2.68E-01,-1.24E+00
4.784557184E0,2.872050047E0,2.680500150E-1,-1.17E+00
4.788513184E0,3.102000237E0,6.700500250E-1,-1.13E+00
4.792469646E0,3.196950197E0,9.949500561E-1,-1.17E+00
4.796425861E0,3.121050119E0,1.206000090E0,-1.13E+00
4.800382169E0,3.063000202E0,1.396950126E0,-1.17E+00
4.804339015E0,2.947950125E0,1.492950082E0,-1.09E+00
4.808296554E0,2.853000164E0,1.551000118E0,-1.05E+00
4.812253631E0,2.757000208E0,1.588950038E0,-1.01E+00
4.816210631E0,2.680050135E0,1.608000040E0,-9.95E-01
4.820167670E0,2.604000092E0,1.608000040E0,-9.38E-01
4.824124285E0,2.565000057E0,1.608000040E0,-9.38E-01
4.828080824E0,2.527050018E0,1.608000040E0,-1.01E+00
4.832037179E0,2.431050062E0,1.551000118E0,-1.03E+00
4.835992795E0,2.278050184E0,1.492950082E0,-1.09E+00
4.839949410E0,2.086950064E0,1.396950126E0,-1.11E+00
4.843906289E0,1.819050074E0,1.243950009E0,-1.07E+00
4.847862520E0,1.455000043E0,1.033950090E0,-9.76E-01
4.851818905E0,9.760500193E-1,7.270500064E-1,-8.23E-01
4.855775790E0,6.310500503E-1,4.399500191E-1,-6.51E-01
4.859731559E0,3.630000055E-1,2.479500175E-1,-4.40E-01
4.863686943E0,1.530000120E-1,5.700000376E-2,-2.68E-01
4.867641405E0,1.140000075E-1,-7.61E-02,-5.70E-02
4.871596328E0,7.605000585E-2,-9.50E-02,1.140000075E-1
4.875552944E0,1.140000075E-1,-1.14E-01,3.060000241E-1
4.879509491E0,2.869500220E-1,-1.14E-01,4.210500121E-1
4.883464722E0,4.590000212E-1,-9.50E-02,4.210500121E-1
4.887420645E0,6.120000482E-1,-9.50E-02,4.020000100E-1
4.891376583E0,6.510000229E-1,-9.50E-02,3.439500034E-1
4.895333044E0,6.889500618E-1,-7.61E-02,3.630000055E-1
4.899289121E0,6.510000229E-1,-1.14E-01,3.439500034E-1
4.903245491E0,6.700500250E-1,-5.70E-02,2.869500220E-1
4.907201183E0,6.310500503E-1,-7.61E-02,3.250500262E-1
4.911157953E0,6.310500503E-1,-3.80E-02,3.250500262E-1
4.915113636E0,6.120000482E-1,-1.91E-02,3.439500034E-1
4.919069636E0,5.740500093E-1,-1.91E-02,3.630000055E-1
4.923025328E0,4.969500303E-1,-1.14E-01,3.820500076E-1
4.926981852E0,4.210500121E-1,-1.53E-01,4.020000100E-1
4.930938083E0,4.210500121E-1,-1.91E-01,3.630000055E-1
4.934894544E0,4.590000212E-1,-2.48E-01,3.439500034E-1
4.938851040E0,4.590000212E-1,-2.29E-01,3.630000055E-1
4.942807347E0,4.590000212E-1,-2.48E-01,3.060000241E-1
4.946764193E0,4.780500233E-1,-2.10E-01,2.680500150E-1
4.950720833E0,4.780500233E-1,-2.10E-01,1.909500062E-1
4.954677217E0,4.590000212E-1,-2.29E-01,9.495000541E-2
4.958633833E0,4.020000100E-1,-2.68E-01,5.700000376E-2
4.962591530E0,3.250500262E-1,-2.68E-01,-5.70E-02
4.966547992E0,2.479500175E-1,-3.06E-01,-9.50E-02
4.970504530E0,1.140000075E-1,-3.82E-01,-1.91E-01
4.974461453E0,7.605000585E-2,-4.21E-01,-1.72E-01
4.978417915E0,3.795000166E-2,-4.78E-01,-1.91E-01
4.982376222E0,-3.80E-02,-5.74E-01,-1.53E-01
4.986332838E0,-9.50E-02,-6.89E-01,-1.53E-01
4.990289761E0,-1.72E-01,-8.80E-01,-7.61E-02
4.994245838E0,-3.06E-01,-1.11E+00,-5.70E-02
4.998202842E0,-4.59E-01,-1.36E+00,-5.70E-02
5.002158996E0,-5.36E-01,-1.67E+00,-1.14E-01
5.006115073E0,-5.74E-01,-2.09E+00,-3.25E-01
5.010071141E0,-7.27E-01,-2.76E+00,-1.21E+00
5.014026833E0,-1.24E+00,-4.27E+00,-7.56E+00
5.017983064E0,-1.72E+00,-6.36E+00,-1.29E+01
5.021939328E0,-2.07E+00,-8.43E+00,-1.16E+01
5.025895252E0,-2.28E+00,-1.09E+01,-8.33E+00
5.029851328E0,-2.45E+00,-1.36E+01,-4.42E+00
5.033806948E0,-2.78E+00,-1.63E+01,-7.65E-01
5.037761486E0,-3.43E+00,-1.86E+01,1.665000081E0
5.041717179E0,-4.19E+00,-2.05E+01,2.910000086E0
5.045673064E0,-5.02E+00,-2.23E+01,2.890950203E0
5.049629141E0,-5.76E+00,-2.44E+01,1.339950085E0
5.053586602E0,-7.03E+00,-2.69E+01,-1.76E+00
5.057542963E0,-7.62E+00,-2.92E+01,-4.69E+00
5.061499117E0,-7.72E+00,-2.96E+01,-4.21E+00
5.065455040E0,-8.35E+00,-2.72E+01,-1.97E+00
5.069410587E0,-8.33E+00,-2.42E+01,-1.72E-01
5.073365664E0,-7.76E+00,-2.12E+01,6.889500618E-1
5.077321587E0,-6.80E+00,-1.92E+01,9.190500379E-1
5.081277549E0,-6.13E+00,-1.82E+01,5.929500461E-1
5.085233088E0,-5.96E+00,-1.75E+01,1.720500141E-1
5.089190857E0,-6.13E+00,-1.72E+01,-7.61E-02
5.093145102E0,-6.28E+00,-1.79E+01,1.339500099E-1
5.097101871E0,-5.44E+00,-1.96E+01,1.140000075E-1
5.101059256E0,-4.14E+00,-2.11E+01,-5.17E-01
5.105015401E0,-2.66E+00,-2.31E+01,-2.14E+00
5.108971554E0,-1.36E+00,-2.51E+01,-4.88E+00
5.112926477E0,4.590000212E-1,-2.65E+01,-7.98E+00
5.116882266E0,2.259000063E0,-2.70E+01,-9.33E+00
5.120838035E0,3.063000202E0,-2.64E+01,-7.74E+00
5.124794650E0,2.929050207E0,-2.51E+01,-4.61E+00
5.128750924E0,1.894950032E0,-2.33E+01,-1.51E+00
5.132705924E0,5.359500051E-1,-2.11E+01,4.210500121E-1
5.136663924E0,-9.38E-01,-1.91E+01,1.033950090E0
5.140620621E0,-1.99E+00,-1.71E+01,7.459500432E-1
5.144577775E0,-2.51E+00,-1.52E+01,1.720500141E-1
5.148535929E0,-2.51E+00,-1.37E+01,-2.10E-01
5.152492770E0,-2.34E+00,-1.24E+01,-4.02E-01
5.156448924E0,-2.32E+00,-1.14E+01,-1.53E-01
5.160404617E0,-2.57E+00,-1.08E+01,4.399500191E-1
5.164361304E0,-3.26E+00,-1.03E+01,1.014000058E0
5.168317765E0,-3.96E+00,-1.01E+01,1.339950085E0
5.172274458E0,-4.44E+00,-9.71E+00,1.302000046E0
5.176231472E0,-4.75E+00,-9.40E+00,9.570000172E-1
5.180187395E0,-5.09E+00,-9.34E+00,5.550000072E-1
5.184143087E0,-5.42E+00,-9.42E+00,2.100000083E-1
5.188100554E0,-5.88E+00,-9.50E+00,-1.53E-01
5.192056938E0,-6.53E+00,-9.50E+00,-4.21E-01
5.196013323E0,-6.97E+00,-9.29E+00,-4.97E-01
5.199969492E0,-7.58E+00,-9.04E+00,-5.74E-01
5.203925953E0,-8.19E+00,-8.71E+00,-4.97E-01
5.207882184E0,-8.43E+00,-8.19E+00,-3.06E-01
5.211838874E0,-8.66E+00,-7.79E+00,-3.82E-01
5.215795105E0,-8.58E+00,-7.31E+00,-3.06E-01
5.219751875E0,-8.16E+00,-6.72E+00,-2.48E-01
5.223708635E0,-7.56E+00,-6.03E+00,-2.68E-01
5.227665558E0,-6.86E+00,-5.42E+00,-4.40E-01
5.231622250E0,-6.11E+00,-4.84E+00,-5.93E-01
5.235578413E0,-5.38E+00,-4.31E+00,-6.89E-01
5.239534951E0,-4.77E+00,-3.87E+00,-7.27E-01
5.243491721E0,-4.27E+00,-3.50E+00,-7.08E-01
5.247447890E0,-3.77E+00,-3.29E+00,-8.80E-01
5.251403966E0,-3.20E+00,-3.27E+00,-1.55E+00
5.255360351E0,-2.62E+00,-3.27E+00,-2.55E+00
5.259316481E0,-2.09E+00,-3.37E+00,-3.58E+00
5.263272327E0,-1.65E+00,-3.68E+00,-4.37E+00
5.267228404E0,-1.42E+00,-4.12E+00,-4.65E+00
5.271184962E0,-1.28E+00,-4.63E+00,-4.54E+00
5.275141500E0,-1.15E+00,-5.13E+00,-4.14E+00
5.279097500E0,-9.76E-01,-5.67E+00,-3.68E+00
5.283053716E0,-7.85E-01,-6.24E+00,-3.29E+00
5.287009562E0,-4.59E-01,-6.78E+00,-2.81E+00
5.290965947E0,-1.72E-01,-7.28E+00,-2.30E+00
5.294922432E0,-5.70E-02,-7.72E+00,-1.84E+00
5.298877201E0,1.905000024E-2,-8.12E+00,-1.38E+00
5.302833124E0,9.495000541E-2,-8.54E+00,-1.07E+00
5.306789423E0,1.530000120E-1,-8.85E+00,-7.27E-01
5.310745423E0,2.100000083E-1,-9.11E+00,-4.97E-01
5.314701346E0,3.060000241E-1,-9.29E+00,-4.21E-01
5.318655726E0,3.439500034E-1,-9.42E+00,-3.44E-01
5.322613957E0,3.439500034E-1,-9.50E+00,-2.87E-01
5.326570187E0,3.439500034E-1,-9.61E+00,-2.68E-01
5.330527048E0,3.439500034E-1,-9.71E+00,-2.10E-01
5.334483817E0,4.020000100E-1,-9.84E+00,-3.06E-01
5.338440663E0,4.969500303E-1,-9.96E+00,-3.25E-01
5.342397351E0,6.510000229E-1,-1.00E+01,-4.59E-01
5.346354121E0,7.650000453E-1,-1.02E+01,-4.97E-01
5.350311351E0,8.230500221E-1,-1.04E+01,-5.93E-01
5.354268461E0,9.379500151E-1,-1.06E+01,-6.70E-01
5.358225538E0,1.033950090E0,-1.09E+01,-7.46E-01
5.362182692E0,1.090950012E0,-1.12E+01,-7.85E-01
5.366139760E0,1.168050051E0,-1.14E+01,-8.04E-01
5.370096837E0,1.263000011E0,-1.15E+01,-8.23E-01
5.374053606E0,1.263000011E0,-1.15E+01,-8.61E-01
5.378010524E0,1.339950085E0,-1.15E+01,-9.19E-01
5.381967217E0,1.417050123E0,-1.14E+01,-1.07E+00
5.385924140E0,1.435950041E0,-1.13E+01,-1.34E+00
5.389880683E0,1.378050089E0,-1.10E+01,-1.70E+00
5.393837606E0,1.339950085E0,-1.08E+01,-2.13E+00
5.397794760E0,1.282050014E0,-1.04E+01,-2.62E+00
5.401751543E0,1.090950012E0,-9.90E+00,-3.14E+00
5.405707928E0,8.230500221E-1,-9.46E+00,-3.52E+00
5.409664159E0,4.780500233E-1,-8.90E+00,-3.75E+00
5.413621304E0,1.905000024E-2,-8.48E+00,-3.68E+00
5.417579380E0,-3.25E-01,-8.14E+00,-3.45E+00
5.421535996E0,-7.08E-01,-7.93E+00,-3.12E+00
5.425492981E0,-9.57E-01,-7.77E+00,-2.78E+00
5.429449750E0,-1.15E+00,-7.70E+00,-2.51E+00
5.433406365E0,-1.30E+00,-7.62E+00,-2.30E+00
5.437362683E0,-1.38E+00,-7.60E+00,-2.07E+00
5.441319529E0,-1.40E+00,-7.68E+00,-1.86E+00
5.445276299E0,-1.36E+00,-7.77E+00,-1.67E+00
5.449233082E0,-1.23E+00,-7.87E+00,-1.47E+00
5.453189697E0,-1.09E+00,-7.91E+00,-1.26E+00
5.457146390E0,-9.57E-01,-7.93E+00,-1.15E+00
5.461102385E0,-7.65E-01,-7.89E+00,-9.76E-01
5.465058615E0,-5.36E-01,-7.72E+00,-8.61E-01
5.469014769E0,-2.87E-01,-7.54E+00,-8.23E-01
5.472969553E0,3.795000166E-2,-7.31E+00,-6.70E-01
5.476925323E0,3.439500034E-1,-7.08E+00,-7.27E-01
5.480881015E0,7.459500432E-1,-6.93E+00,-7.85E-01
5.484837697E0,1.033950090E0,-6.86E+00,-8.80E-01
5.488794467E0,1.168050051E0,-6.89E+00,-9.76E-01
5.492751390E0,1.378050089E0,-6.97E+00,-1.15E+00
5.496708222E0,1.474050045E0,-7.05E+00,-1.40E+00
5.500664837E0,1.417050123E0,-7.14E+00,-1.67E+00
5.504620991E0,1.359000087E0,-7.33E+00,-1.93E+00
5.508577068E0,1.339950085E0,-7.58E+00,-2.05E+00
5.512532991E0,1.282050014E0,-7.68E+00,-2.09E+00
5.516489299E0,1.263000011E0,-7.74E+00,-1.89E+00
5.520446053E0,1.129050016E0,-7.68E+00,-1.46E+00
5.524402822E0,8.610000610E-1,-7.74E+00,-9.76E-01
5.528359668E0,5.550000072E-1,-7.66E+00,-8.61E-01
5.532315674E0,3.439500034E-1,-7.74E+00,-1.11E+00
5.536272521E0,5.700000376E-2,-7.83E+00,-1.34E+00
5.540229982E0,-6.51E-01,-7.93E+00,-1.53E+00
5.544186168E0,-1.49E+00,-7.93E+00,-1.89E+00
5.548142553E0,-2.05E+00,-7.89E+00,-2.39E+00
5.552098553E0,-2.41E+00,-7.98E+00,-2.89E+00
5.556054476E0,-2.55E+00,-8.16E+00,-3.03E+00
5.560010476E0,-2.34E+00,-8.41E+00,-2.83E+00
5.563967091E0,-2.01E+00,-8.67E+00,-2.26E+00
5.567923077E0,-1.53E+00,-8.94E+00,-1.63E+00
5.571879385E0,-1.01E+00,-9.23E+00,-1.11E+00
5.575836077E0,-7.65E-01,-9.63E+00,-6.31E-01
5.579792222E0,-7.08E-01,-9.94E+00,-2.48E-01
5.583746991E0,-5.93E-01,-1.02E+01,3.060000241E-1
5.587703068E0,-6.51E-01,-1.04E+01,7.080000043E-1
5.591658832E0,-9.76E-01,-1.05E+01,6.120000482E-1
5.595616755E0,-1.40E+00,-1.06E+01,-3.80E-02
5.599573294E0,-1.76E+00,-1.08E+01,-1.15E+00
5.603529548E0,-1.99E+00,-1.10E+01,-2.83E+00
5.607485855E0,-2.22E+00,-1.11E+01,-4.59E+00
5.611442240E0,-2.47E+00,-1.13E+01,-6.01E+00
5.615398548E0,-2.85E+00,-1.14E+01,-6.59E+00
5.619354855E0,-3.16E+00,-1.15E+01,-6.32E+00
5.623311009E0,-3.47E+00,-1.15E+01,-5.36E+00
5.627267005E0,-3.69E+00,-1.17E+01,-4.02E+00
5.631223159E0,-3.89E+00,-1.18E+01,-2.68E+00
5.635180082E0,-4.16E+00,-1.19E+01,-1.68E+00
5.639136684E0,-4.59E+00,-1.19E+01,-1.17E+00
5.643093068E0,-4.94E+00,-1.20E+01,-1.28E+00
5.647049145E0,-5.11E+00,-1.23E+01,-1.86E+00
5.651005448E0,-5.17E+00,-1.25E+01,-2.28E+00
5.654961986E0,-5.21E+00,-1.28E+01,-2.37E+00
5.658918909E0,-5.21E+00,-1.29E+01,-1.86E+00
5.662875285E0,-5.13E+00,-1.33E+01,-9.38E-01
5.666831747E0,-4.90E+00,-1.40E+01,-1.14E-01
5.670787285E0,-4.73E+00,-1.48E+01,4.020000100E-1
5.674744448E0,-4.58E+00,-1.59E+01,4.969500303E-1
5.678701063E0,-4.31E+00,-1.69E+01,2.100000083E-1
5.682659063E0,-4.10E+00,-1.78E+01,-3.63E-01
5.686615535E0,-4.02E+00,-1.91E+01,-1.13E+00
5.690571920E0,-4.23E+00,-2.03E+01,-1.72E+00
5.694528458E0,-4.31E+00,-2.15E+01,-1.99E+00
5.698484924E0,-4.17E+00,-2.26E+01,-1.88E+00
5.702440924E0,-4.33E+00,-2.37E+01,-1.42E+00
5.706397001E0,-4.21E+00,-2.47E+01,-8.80E-01
5.710353154E0,-3.79E+00,-2.55E+01,-6.12E-01
5.714309231E0,-3.29E+00,-2.62E+01,-5.93E-01
5.718265154E0,-2.97E+00,-2.65E+01,-8.61E-01
5.722221644E0,-2.85E+00,-2.67E+01,-1.42E+00
5.726177875E0,-2.74E+00,-2.66E+01,-2.01E+00
5.730134028E0,-2.76E+00,-2.62E+01,-2.36E+00
5.734090202E0,-2.89E+00,-2.55E+01,-2.43E+00
5.738047049E0,-3.04E+00,-2.48E+01,-2.47E+00
5.742002741E0,-3.26E+00,-2.40E+01,-2.51E+00
5.745958659E0,-3.43E+00,-2.32E+01,-2.53E+00
5.749915120E0,-3.58E+00,-2.23E+01,-2.55E+00
5.753871428E0,-3.73E+00,-2.14E+01,-2.64E+00
5.757827745E0,-3.81E+00,-2.06E+01,-2.74E+00
5.761783591E0,-4.08E+00,-1.98E+01,-2.87E+00
5.765739668E0,-4.31E+00,-1.89E+01,-2.93E+00
5.769695909E0,-4.61E+00,-1.81E+01,-3.01E+00
5.773651986E0,-4.75E+00,-1.72E+01,-3.08E+00
5.777608293E0,-4.75E+00,-1.61E+01,-3.10E+00
5.781564269E0,-4.65E+00,-1.50E+01,-3.27E+00
5.785520423E0,-4.48E+00,-1.39E+01,-3.37E+00
5.789476269E0,-4.17E+00,-1.29E+01,-3.39E+00
5.793432245E0,-3.73E+00,-1.18E+01,-3.37E+00
5.797388245E0,-3.22E+00,-1.07E+01,-3.20E+00
5.801344169E0,-2.41E+00,-9.56E+00,-2.95E+00
5.805299938E0,-1.55E+00,-8.29E+00,-2.76E+00
5.809256707E0,-8.61E-01,-7.14E+00,-2.55E+00
5.813212784E0,-3.25E-01,-6.17E+00,-2.11E+00
5.817167707E0,9.495000541E-2,-5.34E+00,-1.70E+00
5.821124861E0,5.740500093E-1,-4.61E+00,-1.09E+00
5.825081245E0,1.110000014E0,-3.91E+00,-5.36E-01
5.829037063E0,1.704000115E0,-3.20E+00,-1.91E-01
5.832993293E0,2.068050146E0,-2.55E+00,-5.70E-02
5.836948447E0,2.335950136E0,-1.97E+00,3.795000166E-2
5.840905389E0,2.604000092E0,-1.40E+00,3.795000166E-2
5.844863082E0,2.776050091E0,-8.80E-01,-1.14E-01
5.848818389E0,3.006000042E0,-4.59E-01,-2.29E-01
5.852774861E0,3.139950037E0,-9.50E-02,-4.40E-01
5.856732015E0,3.196950197E0,2.100000083E-1,-5.55E-01
5.860687630E0,3.255000114E0,4.590000212E-1,-6.12E-01
5.864643322E0,3.331050158E0,6.120000482E-1,-5.55E-01
5.868599015E0,3.255000114E0,7.270500064E-1,-5.36E-01
5.872554553E0,3.235950232E0,8.419500589E-1,-4.40E-01
5.876510707E0,3.217050076E0,9.570000172E-1,-3.44E-01
5.880466630E0,3.082950115E0,1.053000093E0,-2.87E-01
5.884422784E0,2.947950125E0,1.110000014E0,-4.02E-01
5.888379087E0,2.853000164E0,1.147950053E0,-4.97E-01
5.892335241E0,2.680050135E0,1.186950088E0,-6.70E-01
5.896290779E0,2.508000135E0,1.186950088E0,-9.00E-01
5.900246328E0,2.374050140E0,1.263000011E0,-1.09E+00
5.904201943E0,2.259000063E0,1.225050092E0,-1.28E+00
5.908158174E0,2.125050068E0,1.225050092E0,-1.38E+00
5.912114294E0,2.009999990E0,1.186950088E0,-1.40E+00
5.916070140E0,1.857000113E0,1.129050016E0,-1.38E+00
5.920026371E0,1.723050117E0,1.129050016E0,-1.23E+00
5.923982745E0,1.378050089E0,1.033950090E0,-1.07E+00
5.927939053E0,1.053000093E0,8.610000610E-1,-9.38E-01
5.931895438E0,7.459500432E-1,7.270500064E-1,-7.46E-01
5.935851817E0,4.780500233E-1,5.740500093E-1,-5.93E-01
5.939807663E0,2.100000083E-1,4.590000212E-1,-4.21E-01
5.943763586E0,5.700000376E-2,4.020000100E-1,-3.82E-01
5.947720048E0,0.000000000E0,3.439500034E-1,-3.44E-01
5.951677279E0,-5.70E-02,3.250500262E-1,-2.68E-01
5.955633048E0,-1.34E-01,2.680500150E-1,-2.87E-01
5.959589111E0,-2.29E-01,1.339500099E-1,-2.48E-01
5.963543957E0,-3.63E-01,0.000000000E0,-1.72E-01
5.967499880E0,-4.21E-01,-1.14E-01,-9.50E-02
5.971455668E0,-3.82E-01,-2.29E-01,-5.70E-02
5.975411668E0,-4.21E-01,-3.82E-01,-3.80E-02
5.979365976E0,-3.82E-01,-4.97E-01,1.905000024E-2
5.983322621E0,-3.06E-01,-6.12E-01,-1.91E-02
5.987279390E0,-2.29E-01,-6.89E-01,-9.50E-02
5.991234774E0,-1.53E-01,-7.65E-01,-1.53E-01
5.995190481E0,-1.34E-01,-7.85E-01,-2.87E-01
5.999146096E0,-1.91E-02,-8.04E-01,-3.82E-01
6.003100173E0,0.000000000E0,-8.04E-01,-4.59E-01
6.007055712E0,3.795000166E-2,-7.46E-01,-5.36E-01
6.011011942E0,1.140000075E-1,-6.51E-01,-6.51E-01
6.014967712E0,1.720500141E-1,-6.70E-01,-7.65E-01
6.018923606E0,2.100000083E-1,-5.93E-01,-8.23E-01
6.022879529E0,2.680500150E-1,-6.12E-01,-8.80E-01
6.026835606E0,2.680500150E-1,-6.12E-01,-9.76E-01
6.030791976E0,3.060000241E-1,-5.74E-01,-1.09E+00
6.034747899E0,3.060000241E-1,-5.74E-01,-1.15E+00
6.038704053E0,3.630000055E-1,-5.74E-01,-1.19E+00
6.042659880E0,4.020000100E-1,-6.12E-01,-1.28E+00
6.046616265E0,4.399500191E-1,-5.93E-01,-1.38E+00
6.050572496E0,4.780500233E-1,-5.74E-01,-1.53E+00
6.054529284E0,5.359500051E-1,-6.89E-01,-1.74E+00
6.058486438E0,4.969500303E-1,-8.80E-01,-1.95E+00
6.062443900E0,4.210500121E-1,-1.24E+00,-2.43E+00
6.066400980E0,4.210500121E-1,-1.70E+00,-3.20E+00
6.070357904E0,4.780500233E-1,-2.26E+00,-4.16E+00
6.074314750E0,6.120000482E-1,-2.85E+00,-5.59E+00
6.078270895E0,8.040000200E-1,-3.64E+00,-7.58E+00
6.082226510E0,8.419500589E-1,-4.73E+00,-9.08E+00
6.086183356E0,8.419500589E-1,-5.88E+00,-1.05E+01
6.090139942E0,8.230500221E-1,-7.41E+00,-1.14E+01
6.094096481E0,6.510000229E-1,-9.09E+00,-1.01E+01
6.098054558E0,-3.80E-02,-1.08E+01,-6.82E+00
6.102011275E0,-1.19E+00,-1.24E+01,-3.04E+00
6.105966275E0,-2.39E+00,-1.42E+01,5.929500461E-1
6.109922814E0,-3.54E+00,-1.63E+01,5.437950134E0
6.113880029E0,-4.92E+00,-1.82E+01,8.904000282E0
6.117837260E0,-6.05E+00,-1.99E+01,1.033995056E1
6.121794029E0,-6.22E+00,-2.15E+01,1.058895016E1
6.125751116E0,-6.72E+00,-2.33E+01,1.014900017E1
6.129708116E0,-7.66E+00,-2.58E+01,8.596950531E0
6.133665116E0,-8.60E+00,-2.84E+01,4.690950394E0
6.137623587E0,-8.90E+00,-3.00E+01,-6.31E-01
6.141580664E0,-8.43E+00,-2.97E+01,-4.54E+00
6.145537587E0,-6.80E+00,-2.57E+01,-6.89E+00
6.149494433E0,-4.54E+00,-2.03E+01,-7.07E+00
6.153450972E0,-3.94E+00,-1.68E+01,-5.57E+00
6.157407818E0,-4.04E+00,-1.47E+01,-4.00E+00
6.161364342E0,-4.17E+00,-1.33E+01,-2.85E+00
6.165321112E0,-4.52E+00,-1.23E+01,-1.63E+00
6.169276496E0,-4.84E+00,-1.15E+01,2.869500220E-1
6.173232554E0,-5.09E+00,-1.10E+01,2.833950043E0
6.177189400E0,-4.92E+00,-1.09E+01,4.747950077E0
6.181146169E0,-4.84E+00,-1.15E+01,5.725050449E0
6.185103164E0,-4.90E+00,-1.27E+01,6.145950317E0
6.189059857E0,-4.84E+00,-1.44E+01,6.337950230E0
6.193016395E0,-5.13E+00,-1.66E+01,6.280050278E0
6.196972462E0,-5.63E+00,-1.90E+01,5.955000401E0
6.200928770E0,-5.99E+00,-2.20E+01,4.480050087E0
6.204886385E0,-5.74E+00,-2.52E+01,1.147950053E0
6.208843688E0,-4.38E+00,-2.82E+01,-3.77E+00
6.212799688E0,-2.07E+00,-3.08E+01,-1.09E+01
6.216754073E0,9.570000172E-1,-3.28E+01,-2.22E+01
6.220709707E0,1.819050074E0,-3.22E+01,-2.32E+01
6.224666092E0,1.720500141E-1,-2.76E+01,-1.47E+01
6.228622784E0,-1.36E+00,-2.23E+01,-6.03E+00
6.232578237E0,-1.72E+00,-1.79E+01,-9.95E-01
6.236533237E0,-1.93E+00,-1.46E+01,6.700500250E-1
6.240490775E0,-2.62E+00,-1.22E+01,-1.72E-01
6.244447380E0,-3.24E+00,-1.04E+01,-1.28E+00
6.248404303E0,-3.50E+00,-8.98E+00,-1.80E+00
6.252360611E0,-3.45E+00,-8.23E+00,-1.80E+00
6.256317059E0,-3.43E+00,-7.72E+00,-1.49E+00
6.260273136E0,-3.33E+00,-7.33E+00,-9.95E-01
6.264229982E0,-3.47E+00,-7.10E+00,-5.74E-01
6.268187006E0,-3.87E+00,-7.10E+00,-4.02E-01
6.272143544E0,-4.31E+00,-7.28E+00,-9.76E-01
6.276100006E0,-4.71E+00,-7.45E+00,-1.95E+00
6.280056165E0,-5.02E+00,-7.68E+00,-2.97E+00
6.284012780E0,-5.21E+00,-8.12E+00,-3.68E+00
6.287968703E0,-5.46E+00,-8.54E+00,-3.81E+00
6.291924842E0,-5.65E+00,-9.00E+00,-3.50E+00
6.295880842E0,-5.67E+00,-9.31E+00,-2.87E+00
6.299836919E0,-5.51E+00,-9.34E+00,-2.01E+00
6.303793025E0,-5.19E+00,-9.19E+00,-1.26E+00
6.307749102E0,-5.11E+00,-8.75E+00,-7.46E-01
6.311705640E0,-5.00E+00,-8.14E+00,-4.40E-01
6.315662015E0,-4.81E+00,-7.54E+00,-3.25E-01
6.319618323E0,-4.61E+00,-7.01E+00,-2.48E-01
6.323574246E0,-4.38E+00,-6.57E+00,-2.48E-01
6.327530616E0,-4.17E+00,-6.15E+00,-2.87E-01
6.331487309E0,-3.96E+00,-5.82E+00,-4.59E-01
6.335443847E0,-3.81E+00,-5.57E+00,-7.27E-01
6.339400169E0,-3.58E+00,-5.38E+00,-1.05E+00
6.343356861E0,-3.31E+00,-5.28E+00,-1.38E+00
6.347312861E0,-2.99E+00,-5.21E+00,-1.59E+00
6.351268799E0,-2.55E+00,-5.23E+00,-1.78E+00
6.355224799E0,-1.99E+00,-5.40E+00,-1.80E+00
6.359180338E0,-1.46E+00,-5.71E+00,-1.74E+00
6.363136193E0,-9.57E-01,-6.09E+00,-1.57E+00
6.367092501E0,-6.12E-01,-6.43E+00,-1.51E+00
6.371048578E0,-2.87E-01,-6.80E+00,-1.40E+00
6.375003352E0,1.905000024E-2,-7.07E+00,-1.19E+00
6.378959583E0,3.250500262E-1,-7.35E+00,-9.76E-01
6.382915890E0,6.700500250E-1,-7.58E+00,-7.27E-01
6.386872458E0,9.379500151E-1,-7.83E+00,-5.36E-01
6.390828996E0,1.168050051E0,-8.00E+00,-4.40E-01
6.394784996E0,1.302000046E0,-8.12E+00,-3.25E-01
6.398741895E0,1.359000087E0,-8.27E+00,-2.68E-01
6.402698588E0,1.474050045E0,-8.48E+00,-2.87E-01
6.406655588E0,1.512000084E0,-8.62E+00,-2.87E-01
6.410612203E0,1.551000118E0,-8.71E+00,-3.82E-01
6.414568818E0,1.665000081E0,-8.85E+00,-5.74E-01
6.418525434E0,1.723050117E0,-9.06E+00,-8.61E-01
6.422482222E0,1.819050074E0,-9.33E+00,-1.23E+00
6.426438760E0,2.009999990E0,-9.34E+00,-1.68E+00
6.430395376E0,2.106000185E0,-9.29E+00,-2.07E+00
6.434352212E0,2.143949986E0,-9.19E+00,-2.57E+00
6.438308674E0,2.143949986E0,-9.23E+00,-3.14E+00
6.442265366E0,2.296950102E0,-9.34E+00,-3.68E+00
6.446222304E0,2.527050018E0,-9.48E+00,-4.10E+00
6.450179381E0,2.719050169E0,-9.61E+00,-4.12E+00
6.454136304E0,2.680050135E0,-9.61E+00,-3.89E+00
6.458092991E0,2.565000057E0,-9.56E+00,-3.47E+00
6.462049530E0,2.259000063E0,-9.50E+00,-2.87E+00
6.466005837E0,1.990950108E0,-9.44E+00,-2.36E+00
6.469962400E0,1.761000037E0,-9.34E+00,-1.89E+00
6.473919169E0,1.551000118E0,-9.21E+00,-1.42E+00
6.477875708E0,1.417050123E0,-9.13E+00,-9.57E-01
6.481832216E0,1.225050092E0,-9.06E+00,-5.55E-01
6.485788755E0,1.072050095E0,-9.02E+00,-4.02E-01
6.489744985E0,9.190500379E-1,-8.92E+00,-5.17E-01
6.493701130E0,6.889500618E-1,-8.73E+00,-8.61E-01
6.497657515E0,3.439500034E-1,-8.58E+00,-1.38E+00
6.501614130E0,3.795000166E-2,-8.56E+00,-1.78E+00
6.505572524E0,-9.50E-02,-8.60E+00,-2.14E+00
6.509528832E0,-2.10E-01,-8.67E+00,-2.36E+00
6.513485601E0,-3.25E-01,-8.69E+00,-2.32E+00
6.517451255E0,-3.63E-01,-8.75E+00,-2.03E+00
6.521397794E0,-3.82E-01,-8.79E+00,-1.67E+00
6.525353255E0,-3.63E-01,-8.77E+00,-1.21E+00
6.529309640E0,-3.44E-01,-8.73E+00,-7.27E-01
6.533265409E0,-2.29E-01,-8.66E+00,-2.68E-01
6.537221255E0,-1.91E-01,-8.52E+00,-5.70E-02
6.541178250E0,-1.53E-01,-8.31E+00,-9.50E-02
6.545135173E0,-7.61E-02,-7.97E+00,-5.17E-01
6.549091096E0,-1.53E-01,-7.58E+00,-9.19E-01
6.553047413E0,-4.40E-01,-7.18E+00,-1.24E+00
6.557003567E0,-9.57E-01,-6.80E+00,-1.46E+00
6.560959182E0,-1.55E+00,-6.55E+00,-1.86E+00
6.564915553E0,-1.91E+00,-6.39E+00,-2.62E+00
6.568872322E0,-2.11E+00,-6.38E+00,-3.43E+00
6.572828245E0,-2.30E+00,-6.55E+00,-4.08E+00
6.576784067E0,-2.36E+00,-7.01E+00,-4.56E+00
6.580739606E0,-2.16E+00,-7.66E+00,-4.77E+00
6.584696067E0,-1.65E+00,-8.46E+00,-4.46E+00
6.588652841E0,-8.80E-01,-9.29E+00,-3.60E+00
6.592608687E0,-9.50E-02,-1.01E+01,-2.39E+00
6.596564072E0,5.170500278E-1,-1.08E+01,-1.17E+00
6.600519750E0,1.090950012E0,-1.13E+01,-9.50E-02
6.604474827E0,1.551000118E0,-1.16E+01,7.459500432E-1
6.608430981E0,1.894950032E0,-1.16E+01,1.282050014E0
6.612387447E0,2.125050068E0,-1.14E+01,1.570050120E0
6.616343909E0,2.374050140E0,-1.06E+01,1.455000043E0
6.620300063E0,2.412000179E0,-9.73E+00,1.090950012E0
6.624256914E0,1.990950108E0,-9.17E+00,5.929500461E-1
6.628215914E0,1.474050045E0,-8.43E+00,-3.25E-01
6.632172760E0,8.610000610E-1,-7.53E+00,-1.88E+00
6.636130072E0,7.605000585E-2,-6.87E+00,-3.62E+00
6.640087687E0,-9.38E-01,-6.47E+00,-4.98E+00
6.644044533E0,-2.13E+00,-6.28E+00,-5.49E+00
6.648000976E0,-3.10E+00,-6.38E+00,-5.00E+00
6.651957668E0,-3.83E+00,-6.70E+00,-4.00E+00
6.655914283E0,-4.23E+00,-7.16E+00,-2.93E+00
6.659871111E0,-4.19E+00,-7.74E+00,-2.01E+00
6.663827803E0,-3.89E+00,-8.27E+00,-1.09E+00
6.667782957E0,-3.29E+00,-8.79E+00,7.605000585E-2
6.671739452E0,-2.62E+00,-9.33E+00,1.263000011E0
6.675696068E0,-1.82E+00,-9.94E+00,2.296950102E0
6.679652683E0,-1.15E+00,-1.05E+01,3.043950081E0
6.683608977E0,-6.12E-01,-1.12E+01,3.255000114E0
6.687565054E0,-1.53E-01,-1.20E+01,2.890950203E0
6.691521669E0,-3.80E-02,-1.27E+01,2.335950136E0
6.695477746E0,-3.80E-02,-1.35E+01,1.684950113E0
6.699433669E0,-3.06E-01,-1.42E+01,7.270500064E-1
6.703391746E0,-8.04E-01,-1.49E+01,-4.59E-01
6.707348476E0,-1.46E+00,-1.53E+01,-2.03E+00
6.711304707E0,-2.07E+00,-1.56E+01,-4.04E+00
6.715261400E0,-2.72E+00,-1.55E+01,-6.09E+00
6.719218006E0,-3.58E+00,-1.52E+01,-7.62E+00
6.723174467E0,-4.58E+00,-1.48E+01,-7.93E+00
6.727130467E0,-5.36E+00,-1.45E+01,-6.57E+00
6.731086703E0,-5.96E+00,-1.44E+01,-4.16E+00
6.735042934E0,-6.38E+00,-1.47E+01,-2.05E+00
6.738999549E0,-6.47E+00,-1.52E+01,-9.95E-01
6.742956314E0,-6.39E+00,-1.58E+01,-7.46E-01
6.746912544E0,-6.41E+00,-1.66E+01,-8.42E-01
6.750868621E0,-6.51E+00,-1.74E+01,-9.57E-01
6.754824871E0,-6.59E+00,-1.83E+01,-9.00E-01
6.758781640E0,-6.68E+00,-1.93E+01,-6.51E-01
6.762737563E0,-6.72E+00,-2.02E+01,-3.06E-01
6.766691934E0,-6.72E+00,-2.12E+01,1.905000024E-2
6.770647703E0,-6.61E+00,-2.21E+01,1.339500099E-1
6.774604319E0,-6.22E+00,-2.28E+01,-1.91E-02
6.778561717E0,-5.97E+00,-2.32E+01,-1.91E-01
6.782518640E0,-5.94E+00,-2.36E+01,-2.29E-01
6.786473948E0,-5.74E+00,-2.38E+01,3.795000166E-2
6.790431020E0,-5.46E+00,-2.39E+01,4.590000212E-1
6.794388328E0,-5.19E+00,-2.40E+01,1.053000093E0
6.798345251E0,-5.04E+00,-2.40E+01,1.570050120E0
6.802301784E0,-4.79E+00,-2.39E+01,1.837950110E0
6.806258323E0,-4.37E+00,-2.38E+01,1.876050115E0
6.810215092E0,-4.04E+00,-2.37E+01,1.704000115E0
6.814171482E0,-3.87E+00,-2.35E+01,1.339950085E0
6.818127866E0,-3.54E+00,-2.32E+01,7.650000453E-1
6.822085174E0,-3.18E+00,-2.27E+01,1.905000024E-2
6.826043015E0,-2.85E+00,-2.21E+01,-9.38E-01
6.829999631E0,-2.78E+00,-2.12E+01,-1.86E+00
6.833956477E0,-2.83E+00,-2.03E+01,-2.79E+00
6.837913266E0,-3.01E+00,-1.94E+01,-3.60E+00
6.841870112E0,-3.08E+00,-1.84E+01,-4.38E+00
6.845826651E0,-3.04E+00,-1.73E+01,-5.13E+00
6.849783434E0,-2.91E+00,-1.63E+01,-5.84E+00
6.853740126E0,-2.68E+00,-1.51E+01,-6.47E+00
6.857697280E0,-2.62E+00,-1.38E+01,-6.78E+00
6.861653957E0,-2.62E+00,-1.24E+01,-6.57E+00
6.865610111E0,-2.76E+00,-1.10E+01,-5.86E+00
6.869566804E0,-2.81E+00,-9.77E+00,-5.06E+00
6.873523038E0,-2.51E+00,-8.73E+00,-4.29E+00
6.877479269E0,-2.09E+00,-7.79E+00,-3.81E+00
6.881435346E0,-1.42E+00,-6.84E+00,-3.33E+00
6.885391799E0,-4.40E-01,-5.61E+00,-2.91E+00
6.889346568E0,4.969500303E-1,-4.33E+00,-2.68E+00
6.893303029E0,1.396950126E0,-3.27E+00,-2.60E+00
6.897259794E0,2.068050146E0,-2.51E+00,-2.58E+00
6.901216486E0,2.604000092E0,-1.86E+00,-2.49E+00
6.905172178E0,3.063000202E0,-1.21E+00,-2.26E+00
6.909128563E0,3.292950153E0,-6.12E-01,-2.03E+00
6.913085024E0,3.292950153E0,-2.10E-01,-2.05E+00
6.917042486E0,3.025050163E0,2.100000083E-1,-2.16E+00
6.920999341E0,2.776050091E0,5.359500051E-1,-2.28E+00
6.924956187E0,2.470050097E0,9.190500379E-1,-2.41E+00
6.928912726E0,2.412000179E0,1.147950053E0,-2.49E+00
6.932868722E0,2.335950136E0,1.339950085E0,-2.66E+00
6.936824953E0,2.221050024E0,1.551000118E0,-2.79E+00
6.940781029E0,2.047950029E0,1.704000115E0,-2.99E+00
6.944737866E0,1.857000113E0,1.894950032E0,-3.26E+00
6.948694404E0,1.723050117E0,2.029050112E0,-3.47E+00
6.952650712E0,1.684950113E0,2.125050068E0,-3.54E+00
6.956607577E0,1.723050117E0,2.106000185E0,-3.31E+00
6.960563962E0,1.837950110E0,2.086950064E0,-2.79E+00
6.964520654E0,2.029050112E0,1.953000069E0,-2.09E+00
6.968477341E0,2.221050024E0,1.627050042E0,-1.42E+00
6.972434110E0,2.221050024E0,1.090950012E0,-7.65E-01
6.976389803E0,2.106000185E0,4.590000212E-1,-1.34E-01
6.980344803E0,1.914000034E0,3.795000166E-2,4.780500233E-1
6.984300034E0,1.570050120E0,-3.82E-01,9.949500561E-1
6.988256957E0,1.339950085E0,-6.70E-01,1.263000011E0
6.992213654E0,1.072050095E0,-8.42E-01,1.492950082E0
6.996170192E0,9.570000172E-1,-9.76E-01,1.588950038E0
7.000126500E0,9.000000358E-1,-1.07E+00,1.570050120E0
7.004082803E0,8.610000610E-1,-1.07E+00,1.531050086E0
7.008039495E0,8.230500221E-1,-9.76E-01,1.396950126E0
7.011995726E0,7.650000453E-1,-9.38E-01,1.282050014E0
7.015952039E0,6.889500618E-1,-8.42E-01,1.282050014E0
7.019908654E0,7.080000043E-1,-7.08E-01,1.168050051E0
7.023865500E0,7.459500432E-1,-5.36E-01,1.053000093E0
7.027822269E0,7.459500432E-1,-4.40E-01,9.570000172E-1
7.031779116E0,7.849500179E-1,-3.25E-01,8.610000610E-1
7.035735962E0,7.270500064E-1,-2.68E-01,7.270500064E-1
7.039692890E0,6.889500618E-1,-2.10E-01,6.510000229E-1
7.043649428E0,6.510000229E-1,-1.72E-01,5.929500461E-1
7.047606351E0,6.310500503E-1,-1.53E-01,5.170500278E-1
7.051562664E0,6.510000229E-1,-7.61E-02,4.780500233E-1
7.055519126E0,7.080000043E-1,-3.80E-02,4.969500303E-1
7.059477356E0,8.419500589E-1,3.795000166E-2,4.780500233E-1
7.063433731E0,9.379500151E-1,5.700000376E-2,5.170500278E-1
7.067390270E0,1.014000058E0,9.495000541E-2,5.740500093E-1
7.071346885E0,1.053000093E0,9.495000541E-2,5.929500461E-1
7.075303289E0,9.949500561E-1,9.495000541E-2,6.120000482E-1
7.079260212E0,9.570000172E-1,1.530000120E-1,6.120000482E-1
7.083217135E0,8.230500221E-1,1.720500141E-1,5.170500278E-1
7.087173765E0,6.700500250E-1,1.909500062E-1,4.590000212E-1
7.091130765E0,4.969500303E-1,1.720500141E-1,4.399500191E-1
7.095087304E0,3.439500034E-1,1.530000120E-1,3.820500076E-1
7.099042842E0,1.140000075E-1,1.140000075E-1,3.250500262E-1
7.102999842E0,-1.91E-02,1.905000024E-2,2.680500150E-1
7.106956150E0,-1.91E-01,-5.70E-02,2.680500150E-1
7.110912678E0,-3.82E-01,-1.34E-01,3.060000241E-1
7.114869140E0,-4.59E-01,-2.68E-01,2.290500104E-1
7.118825755E0,-4.97E-01,-3.82E-01,1.909500062E-1
7.122782447E0,-4.97E-01,-4.59E-01,1.909500062E-1
7.126739524E0,-5.55E-01,-5.55E-01,2.290500104E-1
7.130696294E0,-5.74E-01,-6.70E-01,2.479500175E-1
7.134653650E0,-5.74E-01,-8.42E-01,2.290500104E-1
7.138610573E0,-6.70E-01,-1.01E+00,2.680500150E-1
7.142567419E0,-8.04E-01,-1.28E+00,3.060000241E-1
7.146524251E0,-9.76E-01,-1.67E+00,2.290500104E-1
7.150480635E0,-1.21E+00,-2.18E+00,1.909500062E-1
7.154437251E0,-1.46E+00,-2.81E+00,9.495000541E-2
7.158394621E0,-1.80E+00,-3.56E+00,3.795000166E-2
7.162352852E0,-2.07E+00,-4.50E+00,-1.72E-01
7.166310006E0,-2.43E+00,-5.74E+00,-1.34E+00
7.170266943E0,-3.18E+00,-8.41E+00,-1.06E+01
7.174223943E0,-3.81E+00,-1.12E+01,-1.36E+01
7.178180635E0,-4.63E+00,-1.35E+01,-8.43E+00
7.182137112E0,-5.48E+00,-1.56E+01,-4.08E+00
7.186093112E0,-5.96E+00,-1.74E+01,-3.82E-01
7.190048420E0,-6.32E+00,-1.94E+01,2.143949986E0
7.194005035E0,-6.39E+00,-2.14E+01,3.082950115E0
7.197961035E0,-6.99E+00,-2.36E+01,1.723050117E0
7.201918497E0,-7.97E+00,-2.64E+01,-1.99E+00
7.205874429E0,-8.44E+00,-2.92E+01,-6.93E+00
7.209830967E0,-7.98E+00,-3.08E+01,-8.21E+00
7.213787429E0,-7.95E+00,-2.97E+01,-5.07E+00
7.217743736E0,-8.44E+00,-2.63E+01,-1.42E+00
7.221697736E0,-8.43E+00,-2.29E+01,9.949500561E-1
7.225653659E0,-7.68E+00,-1.99E+01,2.106000185E0
7.229609799E0,-6.49E+00,-1.75E+01,2.584950209E0
7.233565876E0,-5.55E+00,-1.56E+01,2.947950125E0
7.237521876E0,-4.77E+00,-1.42E+01,3.255000114E0
7.241478014E0,-4.27E+00,-1.32E+01,3.312000275E0
7.245434553E0,-4.16E+00,-1.28E+01,3.217050076E0
7.249390860E0,-4.33E+00,-1.31E+01,2.947950125E0
7.253347342E0,-4.46E+00,-1.44E+01,2.412000179E0
7.257304573E0,-4.44E+00,-1.65E+01,1.455000043E0
7.261261880E0,-4.16E+00,-1.86E+01,2.680500150E-1
7.265219952E0,-3.62E+00,-2.06E+01,-1.24E+00
7.269176645E0,-2.60E+00,-2.28E+01,-3.41E+00
7.273133337E0,-1.26E+00,-2.49E+01,-5.94E+00
7.277089880E0,-2.68E-01,-2.63E+01,-7.89E+00
7.281045111E0,2.100000083E-1,-2.68E+01,-8.50E+00
7.285001650E0,8.800500631E-1,-2.66E+01,-7.74E+00
7.288958265E0,1.053000093E0,-2.53E+01,-6.13E+00
7.292914727E0,7.459500432E-1,-2.35E+01,-4.12E+00
7.296871496E0,7.080000043E-1,-2.14E+01,-2.13E+00
7.300828630E0,6.510000229E-1,-1.92E+01,-9.76E-01
7.304786783E0,-1.53E-01,-1.73E+01,-4.59E-01
7.308743630E0,-1.42E+00,-1.55E+01,-6.31E-01
7.312700529E0,-2.07E+00,-1.38E+01,-1.23E+00
7.316657067E0,-2.68E+00,-1.20E+01,-1.99E+00
7.320613606E0,-3.43E+00,-1.05E+01,-2.81E+00
7.324570327E0,-3.87E+00,-9.34E+00,-3.56E+00
7.328526712E0,-4.23E+00,-8.52E+00,-3.93E+00
7.332483327E0,-4.52E+00,-7.85E+00,-3.91E+00
7.336440264E0,-4.86E+00,-7.41E+00,-3.56E+00
7.340397264E0,-5.27E+00,-7.18E+00,-3.03E+00
7.344354033E0,-5.69E+00,-6.97E+00,-2.51E+00
7.348311202E0,-6.01E+00,-6.84E+00,-2.01E+00
7.352268510E0,-6.11E+00,-6.87E+00,-1.49E+00
7.356224741E0,-6.01E+00,-7.10E+00,-1.01E+00
7.360181731E0,-5.86E+00,-7.41E+00,-5.93E-01
7.364138962E0,-5.76E+00,-7.68E+00,-3.44E-01
7.368096115E0,-5.71E+00,-7.79E+00,-2.29E-01
7.372053178E0,-5.80E+00,-7.70E+00,-1.72E-01
7.376010178E0,-5.86E+00,-7.56E+00,-2.10E-01
7.379966717E0,-5.88E+00,-7.41E+00,-2.68E-01
7.383923630E0,-5.63E+00,-7.31E+00,-4.21E-01
7.387880015E0,-5.25E+00,-7.10E+00,-6.12E-01
7.391836245E0,-4.90E+00,-6.76E+00,-7.85E-01
7.395793154E0,-4.38E+00,-6.51E+00,-8.80E-01
7.399750154E0,-3.81E+00,-6.26E+00,-9.57E-01
7.403706847E0,-3.27E+00,-6.15E+00,-9.76E-01
7.407663375E0,-2.81E+00,-6.03E+00,-9.19E-01
7.411620067E0,-2.47E+00,-5.92E+00,-8.80E-01
7.415576683E0,-2.11E+00,-5.84E+00,-8.61E-01
7.419533226E0,-1.74E+00,-5.80E+00,-9.00E-01
7.423489765E0,-1.46E+00,-5.82E+00,-1.05E+00
7.427445765E0,-1.11E+00,-5.86E+00,-1.23E+00
7.431402169E0,-7.85E-01,-5.94E+00,-1.34E+00
7.435358554E0,-4.97E-01,-6.11E+00,-1.47E+00
7.439315323E0,-1.91E-01,-6.24E+00,-1.51E+00
7.443270381E0,3.795000166E-2,-6.41E+00,-1.44E+00
7.447227381E0,3.060000241E-1,-6.63E+00,-1.36E+00
7.451183843E0,4.590000212E-1,-6.87E+00,-1.23E+00
7.455139848E0,6.120000482E-1,-7.10E+00,-1.07E+00
7.459095925E0,7.459500432E-1,-7.41E+00,-9.38E-01
7.463052079E0,8.610000610E-1,-7.70E+00,-7.85E-01
7.467007828E0,8.800500631E-1,-7.91E+00,-5.93E-01
7.470963674E0,8.419500589E-1,-8.12E+00,-4.02E-01
7.474920136E0,7.849500179E-1,-8.33E+00,-1.91E-01
7.478876458E0,7.270500064E-1,-8.56E+00,-5.70E-02
7.482832074E0,6.120000482E-1,-8.81E+00,1.905000024E-2
7.486788381E0,4.590000212E-1,-9.09E+00,9.495000541E-2
7.490744953E0,4.210500121E-1,-9.36E+00,1.530000120E-1
7.494701107E0,4.399500191E-1,-9.54E+00,1.909500062E-1
7.498657337E0,4.399500191E-1,-9.63E+00,2.100000083E-1
7.502614035E0,4.780500233E-1,-9.73E+00,2.680500150E-1
7.506570035E0,5.550000072E-1,-9.84E+00,2.680500150E-1
7.510526343E0,5.359500051E-1,-9.94E+00,2.100000083E-1
7.514482713E0,5.550000072E-1,-9.96E+00,9.495000541E-2
7.518442790E0,6.510000229E-1,-9.94E+00,-1.34E-01
7.522396636E0,8.230500221E-1,-9.86E+00,-4.21E-01
7.526352876E0,1.129050016E0,-9.75E+00,-8.80E-01
7.530309414E0,1.435950041E0,-9.61E+00,-1.36E+00
7.534266184E0,1.570050120E0,-9.54E+00,-1.99E+00
7.538222934E0,1.684950113E0,-9.54E+00,-2.72E+00
7.542179703E0,1.780050039E0,-9.59E+00,-3.48E+00
7.546136242E0,1.761000037E0,-9.65E+00,-4.25E+00
7.550092467E0,1.645950079E0,-9.65E+00,-4.90E+00
7.554048852E0,1.455000043E0,-9.57E+00,-5.36E+00
7.558005467E0,1.168050051E0,-9.46E+00,-5.44E+00
7.561962175E0,7.650000453E-1,-9.29E+00,-5.19E+00
7.565918482E0,2.100000083E-1,-9.06E+00,-4.63E+00
7.569876482E0,-3.06E-01,-8.87E+00,-4.00E+00
7.573832722E0,-7.65E-01,-8.75E+00,-3.37E+00
7.577788415E0,-1.11E+00,-8.67E+00,-2.66E+00
7.581744722E0,-1.07E+00,-8.62E+00,-1.84E+00
7.585701121E0,-8.42E-01,-8.58E+00,-1.19E+00
7.589657890E0,-5.36E-01,-8.52E+00,-7.65E-01
7.593614352E0,-3.06E-01,-8.58E+00,-5.36E-01
7.597570664E0,-1.91E-01,-8.67E+00,-4.59E-01
7.601527126E0,-1.91E-01,-8.81E+00,-2.48E-01
7.605483741E0,-9.50E-02,-8.79E+00,-1.14E-01
7.609439275E0,1.905000024E-2,-8.67E+00,-5.70E-02
7.613395198E0,-1.91E-02,-8.44E+00,7.605000585E-2
7.617351890E0,-2.10E-01,-8.25E+00,2.290500104E-1
7.621308491E0,-6.51E-01,-8.08E+00,1.909500062E-1
7.625266721E0,-9.76E-01,-8.08E+00,-1.34E-01
7.629223644E0,-1.19E+00,-8.16E+00,-7.65E-01
7.633180265E0,-1.38E+00,-8.27E+00,-1.46E+00
7.637136957E0,-1.51E+00,-8.52E+00,-2.03E+00
7.641093419E0,-1.65E+00,-8.88E+00,-2.22E+00
7.645049880E0,-1.72E+00,-9.25E+00,-2.05E+00
7.649006650E0,-1.49E+00,-9.67E+00,-1.55E+00
7.652963726E0,-1.55E+00,-9.86E+00,-8.42E-01
7.656919981E0,-1.67E+00,-9.88E+00,-1.34E-01
7.660875750E0,-1.59E+00,-9.88E+00,4.399500191E-1
7.664832135E0,-1.51E+00,-1.00E+01,8.040000200E-1
7.668788144E0,-1.42E+00,-1.03E+01,9.570000172E-1
7.672744452E0,-1.36E+00,-1.05E+01,1.033950090E0
7.676700452E0,-1.28E+00,-1.07E+01,7.650000453E-1
7.680657443E0,-1.05E+00,-1.06E+01,2.100000083E-1
7.684615597E0,-7.27E-01,-1.03E+01,-5.55E-01
7.688572212E0,-4.02E-01,-9.88E+00,-1.32E+00
7.692528831E0,-9.50E-02,-9.44E+00,-1.91E+00
7.696483755E0,0.000000000E0,-9.09E+00,-2.37E+00
7.700440755E0,-1.91E-02,-8.71E+00,-2.68E+00
7.704398674E0,-9.50E-02,-8.43E+00,-2.87E+00
7.708355212E0,-1.91E-01,-8.25E+00,-2.89E+00
7.712311674E0,-5.74E-01,-8.10E+00,-2.70E+00
7.716267818E0,-1.05E+00,-8.10E+00,-2.64E+00
7.720223741E0,-1.55E+00,-8.19E+00,-2.87E+00
7.724179741E0,-1.99E+00,-8.21E+00,-3.18E+00
7.728135928E0,-2.24E+00,-8.23E+00,-3.35E+00
7.732092544E0,-2.24E+00,-8.39E+00,-3.04E+00
7.736049236E0,-2.05E+00,-8.62E+00,-2.39E+00
7.740005804E0,-1.84E+00,-8.92E+00,-1.59E+00
7.743962188E0,-1.53E+00,-9.15E+00,-7.65E-01
7.747917342E0,-1.24E+00,-9.27E+00,7.605000585E-2
7.751873337E0,-1.03E+00,-9.34E+00,8.800500631E-1
7.755829952E0,-9.76E-01,-9.48E+00,1.492950082E0
7.759786337E0,-9.76E-01,-9.56E+00,1.933950067E0
7.763742885E0,-9.95E-01,-9.69E+00,1.990950108E0
7.767699577E0,-1.05E+00,-9.90E+00,1.780050039E0
7.771655885E0,-1.28E+00,-1.02E+01,9.570000172E-1
7.775614168E0,-1.91E+00,-1.05E+01,-4.40E-01
7.779570707E0,-2.57E+00,-1.09E+01,-2.39E+00
7.783527014E0,-3.14E+00,-1.13E+01,-4.44E+00
7.787483856E0,-3.47E+00,-1.17E+01,-5.90E+00
7.791440779E0,-3.79E+00,-1.21E+01,-6.39E+00
7.795397086E0,-4.12E+00,-1.25E+01,-5.88E+00
7.799353625E0,-4.40E+00,-1.29E+01,-4.63E+00
7.803310548E0,-4.65E+00,-1.32E+01,-3.22E+00
7.807267625E0,-4.83E+00,-1.35E+01,-2.05E+00
7.811224625E0,-5.06E+00,-1.37E+01,-1.23E+00
7.815181548E0,-5.38E+00,-1.41E+01,-5.36E-01
7.819136933E0,-5.61E+00,-1.45E+01,5.700000376E-2
7.823093798E0,-5.80E+00,-1.51E+01,6.120000482E-1
7.827050413E0,-5.86E+00,-1.58E+01,1.014000058E0
7.831007029E0,-5.90E+00,-1.66E+01,1.378050089E0
7.834963404E0,-6.01E+00,-1.74E+01,1.570050120E0
7.838920173E0,-6.09E+00,-1.84E+01,1.588950038E0
7.842876866E0,-6.09E+00,-1.94E+01,1.282050014E0
7.846833616E0,-6.22E+00,-2.03E+01,9.379500151E-1
7.850790078E0,-6.45E+00,-2.13E+01,5.929500461E-1
7.854746693E0,-6.64E+00,-2.24E+01,2.479500175E-1
7.858703832E0,-6.63E+00,-2.35E+01,0.000000000E0
7.862661601E0,-6.01E+00,-2.44E+01,-2.68E-01
7.866618370E0,-5.00E+00,-2.49E+01,-6.89E-01
7.870574765E0,-5.42E+00,-2.56E+01,-6.89E-01
7.874531226E0,-5.04E+00,-2.58E+01,-9.00E-01
7.878487688E0,-4.27E+00,-2.57E+01,-1.23E+00
7.882443779E0,-3.60E+00,-2.54E+01,-1.44E+00
7.886400317E0,-3.22E+00,-2.48E+01,-1.59E+00
7.890357317E0,-3.08E+00,-2.38E+01,-1.89E+00
7.894314336E0,-3.04E+00,-2.28E+01,-2.30E+00
7.898270952E0,-3.08E+00,-2.17E+01,-2.53E+00
7.902227721E0,-3.08E+00,-2.05E+01,-2.68E+00
7.906184251E0,-3.22E+00,-1.93E+01,-2.89E+00
7.910141174E0,-3.39E+00,-1.81E+01,-3.24E+00
7.914097789E0,-3.64E+00,-1.69E+01,-3.54E+00
7.918054548E0,-4.00E+00,-1.60E+01,-3.93E+00
7.922011010E0,-4.25E+00,-1.50E+01,-4.10E+00
7.925968010E0,-4.29E+00,-1.41E+01,-4.19E+00
7.929924683E0,-4.21E+00,-1.32E+01,-4.14E+00
7.933881606E0,-4.02E+00,-1.22E+01,-3.87E+00
7.937838529E0,-3.77E+00,-1.12E+01,-3.58E+00
7.941795207E0,-3.45E+00,-1.02E+01,-3.18E+00
7.945751976E0,-2.93E+00,-9.15E+00,-2.76E+00
7.949708668E0,-2.24E+00,-8.04E+00,-2.41E+00
7.953665347E0,-1.65E+00,-7.08E+00,-2.09E+00
7.957622347E0,-1.07E+00,-6.20E+00,-1.74E+00
7.961579423E0,-4.78E-01,-5.36E+00,-1.32E+00
7.965534885E0,7.605000585E-2,-4.67E+00,-9.57E-01
7.969491654E0,5.359500051E-1,-3.89E+00,-5.93E-01
7.973449116E0,8.610000610E-1,-3.20E+00,-4.59E-01
7.977405890E0,1.225050092E0,-2.64E+00,-2.87E-01
7.981362967E0,1.627050042E0,-2.14E+00,-2.48E-01
7.985319659E0,1.953000069E0,-1.67E+00,-2.10E-01
7.989276044E0,2.374050140E0,-1.30E+00,-1.72E-01
7.993232813E0,2.680050135E0,-8.04E-01,-2.48E-01
7.997190121E0,3.006000042E0,-3.06E-01,-2.87E-01
8.001149059E0,3.255000114E0,1.140000075E-1,-2.10E-01
8.005106367E0,3.388950109E0,3.820500076E-1,-1.72E-01
8.009063059E0,3.504000187E0,4.969500303E-1,-1.72E-01
8.013019895E0,3.465000153E0,6.120000482E-1,-1.34E-01
8.016976972E0,3.351000071E0,6.700500250E-1,-9.50E-02
8.020933972E0,3.217050076E0,7.650000453E-1,-1.91E-01
8.024891035E0,3.063000202E0,8.040000200E-1,-3.06E-01
8.028847958E0,2.872050047E0,8.800500631E-1,-4.97E-01
8.032805266E0,2.661000013E0,9.760500193E-1,-6.89E-01
8.036762232E0,2.508000135E0,1.090950012E0,-8.61E-01
8.040719463E0,2.374050140E0,1.129050016E0,-9.95E-01
8.044676309E0,2.317050219E0,1.147950053E0,-1.09E+00
8.048633521E0,2.278050184E0,1.129050016E0,-1.09E+00
8.052589828E0,2.317050219E0,1.014000058E0,-9.95E-01
8.056546521E0,2.239950180E0,9.760500193E-1,-9.19E-01
8.060502746E0,2.106000185E0,7.849500179E-1,-8.23E-01
8.064459285E0,1.857000113E0,4.210500121E-1,-6.70E-01
8.068415900E0,1.531050086E0,1.530000120E-1,-5.74E-01
8.072371035E0,1.321050048E0,-1.72E-01,-4.97E-01
8.076327958E0,1.186950088E0,-3.63E-01,-4.02E-01
8.080284958E0,1.053000093E0,-4.97E-01,-3.44E-01
8.084242016E0,9.949500561E-1,-5.93E-01,-2.29E-01
8.088199016E0,9.570000172E-1,-6.70E-01,-1.34E-01
8.092155016E0,9.570000172E-1,-6.89E-01,0.000000000E0
8.096111712E0,9.760500193E-1,-7.08E-01,3.795000166E-2
8.100068789E0,9.760500193E-1,-7.08E-01,9.495000541E-2
8.104025712E0,9.570000172E-1,-7.27E-01,1.140000075E-1
8.107982722E0,9.379500151E-1,-7.65E-01,1.140000075E-1
8.111939492E0,8.610000610E-1,-7.46E-01,1.140000075E-1
8.115896261E0,7.459500432E-1,-7.08E-01,9.495000541E-2
8.119853256E0,6.510000229E-1,-6.70E-01,9.495000541E-2
8.123809794E0,5.170500278E-1,-6.31E-01,1.905000024E-2
8.127767333E0,4.210500121E-1,-5.74E-01,-3.80E-02
8.131724487E0,2.290500104E-1,-4.78E-01,-5.70E-02
8.135680948E0,1.140000075E-1,-4.02E-01,-9.50E-02
8.139636718E0,1.905000024E-2,-3.06E-01,-2.10E-01
8.143593020E0,0.000000000E0,-2.29E-01,-2.29E-01
8.147550020E0,-3.80E-02,-1.91E-01,-3.25E-01
8.151506559E0,-5.70E-02,-1.14E-01,-3.44E-01
8.155463189E0,-3.80E-02,-3.80E-02,-3.82E-01
8.159419343E0,-7.61E-02,0.000000000E0,-4.78E-01
8.163377189E0,-3.80E-02,1.905000024E-2,-5.17E-01
8.167332728E0,-7.61E-02,-3.80E-02,-5.93E-01
8.171289189E0,-7.61E-02,-1.53E-01,-6.12E-01
8.175245574E0,-7.61E-02,-3.44E-01,-6.51E-01
8.179202420E0,-7.61E-02,-6.12E-01,-6.51E-01
8.183159112E0,-1.14E-01,-8.61E-01,-6.31E-01
8.187115497E0,-1.53E-01,-1.19E+00,-5.93E-01
8.191072255E0,-1.34E-01,-1.49E+00,-4.78E-01
8.195029178E0,-1.72E-01,-1.82E+00,-4.02E-01
8.198985409E0,-2.10E-01,-2.20E+00,-3.44E-01
8.202941612E0,-2.10E-01,-2.74E+00,-4.02E-01
8.206897843E0,-3.06E-01,-3.39E+00,-8.04E-01
8.210853843E0,-5.74E-01,-4.38E+00,-2.89E+00
8.214810241E0,-9.38E-01,-5.78E+00,-6.91E+00
8.218766164E0,-1.21E+00,-7.51E+00,-1.07E+01
8.222722549E0,-1.59E+00,-9.38E+00,-1.20E+01
8.226678587E0,-2.22E+00,-1.15E+01,-9.42E+00
8.230634741E0,-2.89E+00,-1.37E+01,-5.28E+00
8.234590972E0,-3.71E+00,-1.60E+01,-1.28E+00
8.238546236E0,-4.38E+00,-1.85E+01,2.296950102E0
8.242502852E0,-5.25E+00,-2.07E+01,4.959000111E0
8.246459082E0,-6.34E+00,-2.25E+01,5.112000465E0
8.250415674E0,-6.74E+00,-2.41E+01,3.063000202E0
8.254373674E0,-6.74E+00,-2.56E+01,-4.40E-01
8.258330443E0,-6.86E+00,-2.67E+01,-2.53E+00
8.262286394E0,-6.87E+00,-2.55E+01,-4.97E-01
8.266241240E0,-7.47E+00,-2.21E+01,2.968050241E0
8.270197856E0,-7.14E+00,-1.86E+01,4.441950321E0
8.274153938E0,-5.99E+00,-1.62E+01,4.768050194E0
8.278109861E0,-4.98E+00,-1.47E+01,4.441950321E0
8.282066245E0,-4.37E+00,-1.37E+01,3.886950254E0
8.286022558E0,-4.04E+00,-1.32E+01,3.388950109E0
8.289979020E0,-3.91E+00,-1.30E+01,2.794950247E0
8.293934943E0,-3.87E+00,-1.33E+01,2.296950102E0
8.297891852E0,-4.08E+00,-1.41E+01,2.163000107E0
8.301849006E0,-4.54E+00,-1.53E+01,2.259000063E0
8.305805698E0,-5.07E+00,-1.68E+01,2.565000057E0
8.309762169E0,-5.42E+00,-1.86E+01,3.063000202E0
8.313719553E0,-5.76E+00,-1.99E+01,3.541950226E0
8.317676246E0,-5.84E+00,-2.17E+01,3.694950104E0
8.321632866E0,-5.48E+00,-2.34E+01,3.043950081E0
8.325589251E0,-5.19E+00,-2.51E+01,1.455000043E0
8.329547481E0,-4.58E+00,-2.65E+01,-1.28E+00
8.333503702E0,-3.58E+00,-2.74E+01,-5.25E+00
8.337460010E0,-1.76E+00,-2.77E+01,-1.18E+01
8.341414702E0,7.605000585E-2,-2.69E+01,-1.75E+01
8.345371380E0,1.720500141E-1,-2.41E+01,-1.67E+01
8.349329227E0,-1.17E+00,-2.02E+01,-1.18E+01
8.353285611E0,-2.72E+00,-1.69E+01,-7.22E+00
8.357241750E0,-3.98E+00,-1.44E+01,-4.54E+00
8.361198212E0,-4.61E+00,-1.31E+01,-3.58E+00
8.365154904E0,-5.06E+00,-1.23E+01,-3.12E+00
8.369111683E0,-5.61E+00,-1.13E+01,-2.58E+00
8.373068529E0,-5.67E+00,-1.03E+01,-2.20E+00
8.377024914E0,-5.53E+00,-9.34E+00,-1.68E+00
8.380981442E0,-5.21E+00,-8.52E+00,-1.21E+00
8.384937673E0,-4.96E+00,-7.91E+00,-8.80E-01
8.388893442E0,-5.07E+00,-7.43E+00,-9.19E-01
8.392849918E0,-5.28E+00,-7.16E+00,-1.11E+00
8.396805995E0,-5.40E+00,-7.01E+00,-1.36E+00
8.400761764E0,-5.42E+00,-7.01E+00,-1.49E+00
8.404717774E0,-5.44E+00,-7.01E+00,-1.63E+00
8.408673928E0,-5.51E+00,-7.22E+00,-1.65E+00
8.412629543E0,-5.42E+00,-7.37E+00,-1.57E+00
8.416586159E0,-5.25E+00,-7.58E+00,-1.28E+00
8.420542390E0,-5.06E+00,-7.66E+00,-9.57E-01
8.424498543E0,-4.94E+00,-7.56E+00,-7.08E-01
8.428455222E0,-4.90E+00,-7.41E+00,-5.36E-01
8.432411914E0,-4.73E+00,-7.26E+00,-4.02E-01
8.436368529E0,-4.50E+00,-7.07E+00,-4.02E-01
8.440325236E0,-4.14E+00,-6.78E+00,-4.78E-01
8.444281236E0,-3.68E+00,-6.49E+00,-4.40E-01
8.448237236E0,-3.27E+00,-6.18E+00,-4.40E-01
8.452192995E0,-2.83E+00,-5.97E+00,-3.82E-01
8.456148995E0,-2.39E+00,-6.05E+00,-3.82E-01
8.460105303E0,-1.91E+00,-6.22E+00,-4.02E-01
8.464061529E0,-1.34E+00,-6.22E+00,-4.21E-01
8.468017605E0,-8.80E-01,-6.18E+00,-4.97E-01
8.471974298E0,-3.82E-01,-6.15E+00,-5.93E-01
8.475929448E0,0.000000000E0,-6.15E+00,-6.31E-01
8.479886217E0,4.020000100E-1,-6.20E+00,-7.08E-01
8.483842986E0,7.459500432E-1,-6.41E+00,-7.46E-01
8.487799928E0,1.033950090E0,-6.64E+00,-6.31E-01
8.491756313E0,1.263000011E0,-6.89E+00,-4.97E-01
8.495712774E0,1.435950041E0,-7.20E+00,-3.06E-01
8.499668836E0,1.474050045E0,-7.51E+00,-1.91E-01
8.503624452E0,1.417050123E0,-7.66E+00,9.495000541E-2
8.507580836E0,1.243950009E0,-7.72E+00,3.250500262E-1
8.511537764E0,1.110000014E0,-7.68E+00,4.399500191E-1
8.515494380E0,1.072050095E0,-7.64E+00,5.550000072E-1
8.519451072E0,9.570000172E-1,-7.62E+00,6.700500250E-1
8.523407784E0,8.610000610E-1,-7.64E+00,7.270500064E-1
8.527364631E0,6.889500618E-1,-7.60E+00,7.459500432E-1
8.531321400E0,6.310500503E-1,-7.64E+00,6.510000229E-1
8.535278096E0,6.310500503E-1,-7.62E+00,5.550000072E-1
8.539234788E0,6.310500503E-1,-7.64E+00,4.590000212E-1
8.543191481E0,6.510000229E-1,-7.64E+00,4.399500191E-1
8.547148501E0,7.650000453E-1,-7.74E+00,3.820500076E-1
8.551104885E0,1.053000093E0,-7.83E+00,3.630000055E-1
8.555061655E0,1.243950009E0,-7.97E+00,3.630000055E-1
8.559017957E0,1.243950009E0,-8.14E+00,2.100000083E-1
8.562974573E0,1.282050014E0,-8.25E+00,5.700000376E-2
8.566932496E0,1.243950009E0,-8.46E+00,-2.10E-01
8.570889260E0,1.186950088E0,-8.75E+00,-7.27E-01
8.574846106E0,1.168050051E0,-9.02E+00,-1.46E+00
8.578802799E0,1.129050016E0,-9.27E+00,-2.47E+00
8.582759573E0,1.243950009E0,-9.57E+00,-3.66E+00
8.586716111E0,1.282050014E0,-9.75E+00,-4.98E+00
8.590672727E0,1.243950009E0,-9.84E+00,-6.57E+00
8.594629327E0,1.014000058E0,-9.82E+00,-7.68E+00
8.598585866E0,5.740500093E-1,-9.80E+00,-7.83E+00
8.602543250E0,3.795000166E-2,-9.71E+00,-7.18E+00
8.606501866E0,-3.82E-01,-9.59E+00,-6.17E+00
8.610458712E0,-9.57E-01,-9.40E+00,-5.04E+00
8.614415558E0,-1.28E+00,-9.25E+00,-3.83E+00
8.618372486E0,-1.63E+00,-9.02E+00,-2.68E+00
8.622329101E0,-1.86E+00,-8.67E+00,-1.68E+00
8.626285255E0,-1.88E+00,-8.35E+00,-1.07E+00
8.630242096E0,-1.68E+00,-8.02E+00,-8.42E-01
8.634198481E0,-1.28E+00,-7.93E+00,-8.80E-01
8.638154635E0,-9.38E-01,-7.89E+00,-9.38E-01
8.642110847E0,-8.61E-01,-8.02E+00,-1.05E+00
8.646067154E0,-7.85E-01,-8.12E+00,-1.24E+00
8.650023385E0,-6.51E-01,-7.87E+00,-1.51E+00
8.653979775E0,-7.46E-01,-7.64E+00,-1.65E+00
8.657936082E0,-9.00E-01,-7.53E+00,-1.89E+00
8.661892775E0,-9.95E-01,-7.49E+00,-2.26E+00
8.665849308E0,-1.21E+00,-7.53E+00,-2.49E+00
8.669805770E0,-1.34E+00,-7.64E+00,-2.39E+00
8.673762616E0,-1.32E+00,-7.85E+00,-2.13E+00
8.677719452E0,-1.34E+00,-8.18E+00,-1.67E+00
8.681675837E0,-1.38E+00,-8.52E+00,-1.13E+00
8.685632606E0,-1.34E+00,-8.94E+00,-6.12E-01
8.689588611E0,-1.13E+00,-9.31E+00,-1.34E-01
8.693543842E0,-8.42E-01,-9.59E+00,2.479500175E-1
8.697500765E0,-6.89E-01,-9.88E+00,5.359500051E-1
8.701457515E0,-7.08E-01,-1.01E+01,7.080000043E-1
8.705414746E0,-8.61E-01,-1.01E+01,6.700500250E-1
8.709371746E0,-1.01E+00,-1.01E+01,4.780500233E-1
8.713329130E0,-1.09E+00,-1.01E+01,9.495000541E-2
8.717287130E0,-1.19E+00,-9.98E+00,-4.40E-01
8.721243899E0,-1.53E+00,-9.77E+00,-1.11E+00
8.725200519E0,-1.84E+00,-9.57E+00,-1.70E+00
8.729157519E0,-2.18E+00,-9.33E+00,-2.11E+00
8.733114442E0,-2.68E+00,-9.21E+00,-2.24E+00
8.737071121E0,-3.14E+00,-9.21E+00,-2.32E+00
8.741027967E0,-3.33E+00,-9.23E+00,-2.57E+00
8.744985274E0,-3.27E+00,-9.25E+00,-2.70E+00
8.748942188E0,-3.18E+00,-9.38E+00,-2.58E+00
8.752899649E0,-3.03E+00,-9.73E+00,-2.26E+00
8.756856726E0,-2.79E+00,-1.02E+01,-1.82E+00
8.760813905E0,-2.53E+00,-1.06E+01,-1.44E+00
8.764770520E0,-2.18E+00,-1.10E+01,-1.15E+00
8.768727597E0,-1.82E+00,-1.15E+01,-1.09E+00
8.772684775E0,-1.63E+00,-1.21E+01,-1.36E+00
8.776641852E0,-1.65E+00,-1.26E+01,-1.70E+00
8.780598621E0,-1.86E+00,-1.32E+01,-2.30E+00
8.784555621E0,-2.14E+00,-1.38E+01,-3.10E+00
8.788512775E0,-2.41E+00,-1.45E+01,-3.58E+00
8.792468929E0,-2.66E+00,-1.52E+01,-3.45E+00
8.796425939E0,-3.01E+00,-1.59E+01,-2.78E+00
8.800383016E0,-3.31E+00,-1.65E+01,-2.16E+00
8.804339785E0,-3.56E+00,-1.70E+01,-1.91E+00
8.808296544E0,-3.85E+00,-1.75E+01,-1.97E+00
8.812253698E0,-3.94E+00,-1.78E+01,-2.28E+00
8.816210698E0,-3.83E+00,-1.81E+01,-2.30E+00
8.820167631E0,-3.79E+00,-1.82E+01,-1.97E+00
8.824124785E0,-3.73E+00,-1.84E+01,-1.36E+00
8.828081554E0,-3.69E+00,-1.86E+01,-6.12E-01
8.832037563E0,-3.58E+00,-1.91E+01,-7.61E-02
8.835993256E0,-3.58E+00,-1.97E+01,3.060000241E-1
8.839949871E0,-3.71E+00,-2.02E+01,4.399500191E-1
8.843906573E0,-3.75E+00,-2.07E+01,6.889500618E-1
8.847863189E0,-3.69E+00,-2.12E+01,1.090950012E0
8.851820497E0,-3.71E+00,-2.15E+01,1.684950113E0
8.855777890E0,-3.89E+00,-2.18E+01,2.086950064E0
8.859734275E0,-4.10E+00,-2.18E+01,2.488950014E0
8.863691352E0,-4.46E+00,-2.17E+01,2.641950130E0
8.867648198E0,-4.83E+00,-2.17E+01,2.910000086E0
8.871604583E0,-5.07E+00,-2.17E+01,3.102000237E0
8.875560967E0,-5.07E+00,-2.16E+01,3.043950081E0
8.879517429E0,-4.92E+00,-2.17E+01,2.719050169E0
8.883473429E0,-4.90E+00,-2.19E+01,2.182049990E0
8.887429890E0,-4.86E+00,-2.20E+01,1.302000046E0
8.891387068E0,-4.61E+00,-2.20E+01,7.605000585E-2
8.895344991E0,-4.54E+00,-2.16E+01,-1.23E+00
8.899301837E0,-4.77E+00,-2.09E+01,-2.66E+00
8.903258203E0,-4.86E+00,-2.00E+01,-4.17E+00
8.907214665E0,-4.81E+00,-1.89E+01,-5.90E+00
8.911171588E0,-4.84E+00,-1.79E+01,-7.20E+00
8.915128357E0,-4.69E+00,-1.69E+01,-8.08E+00
8.919084972E0,-4.44E+00,-1.58E+01,-8.44E+00
8.923041741E0,-4.02E+00,-1.46E+01,-8.08E+00
8.926998751E0,-3.73E+00,-1.33E+01,-7.12E+00
8.930955290E0,-3.54E+00,-1.20E+01,-5.92E+00
8.934912213E0,-3.41E+00,-1.08E+01,-4.88E+00
8.938869213E0,-3.06E+00,-9.67E+00,-4.04E+00
8.942826290E0,-2.26E+00,-8.62E+00,-3.29E+00
8.946783598E0,-9.95E-01,-7.54E+00,-2.64E+00
8.950739587E0,1.909500062E-1,-6.55E+00,-2.03E+00
8.954696433E0,1.302000046E0,-5.88E+00,-1.76E+00
8.958653664E0,2.163000107E0,-5.02E+00,-1.59E+00
8.962610510E0,2.910000086E0,-4.17E+00,-1.40E+00
8.966567433E0,3.370050192E0,-3.33E+00,-1.19E+00
8.970524356E0,3.733950138E0,-2.78E+00,-9.38E-01
8.974481399E0,4.135950089E0,-2.43E+00,-5.74E-01
8.978438091E0,4.365000248E0,-1.99E+00,-4.02E-01
8.982395091E0,4.384950161E0,-1.44E+00,-3.25E-01
8.986351775E0,4.270050049E0,-9.00E-01,-1.34E-01
8.990307544E0,4.039950371E0,-4.97E-01,3.795000166E-2
8.994264236E0,3.886950254E0,-1.91E-01,9.495000541E-2
8.998223087E0,3.733950138E0,1.140000075E-1,1.339500099E-1
9.002179857E0,3.504000187E0,4.020000100E-1,1.909500062E-1
9.006136318E0,3.235950232E0,5.550000072E-1,1.720500141E-1
9.010092918E0,3.121050119E0,8.040000200E-1,1.140000075E-1
9.014049842E0,2.929050207E0,1.014000058E0,1.905000024E-2
9.018008918E0,2.776050091E0,1.053000093E0,-5.70E-02
9.021965899E0,2.641950130E0,1.168050051E0,-1.91E-01
9.025923207E0,2.508000135E0,1.206000090E0,-3.25E-01
9.029880438E0,2.431050062E0,1.243950009E0,-4.40E-01
9.033837043E0,2.317050219E0,1.186950088E0,-5.17E-01
9.037793966E0,2.278050184E0,1.147950053E0,-5.55E-01
9.041750505E0,2.163000107E0,1.110000014E0,-6.70E-01
9.045706971E0,2.047950029E0,1.090950012E0,-7.27E-01
9.049664048E0,1.914000034E0,1.033950090E0,-7.46E-01
9.053620356E0,1.665000081E0,1.014000058E0,-7.08E-01
9.057577048E0,1.263000011E0,9.190500379E-1,-6.70E-01
9.061534510E0,7.849500179E-1,7.459500432E-1,-6.70E-01
9.065491048E0,3.820500076E-1,4.590000212E-1,-6.70E-01
9.069447905E0,7.605000585E-2,3.060000241E-1,-7.27E-01
9.073406366E0,-1.91E-02,1.140000075E-1,-7.46E-01
9.077361905E0,-1.34E-01,-1.91E-02,-7.65E-01
9.081318438E0,-2.29E-01,-1.72E-01,-7.65E-01
9.085275053E0,-2.87E-01,-2.87E-01,-6.70E-01
9.089231515E0,-4.21E-01,-4.21E-01,-5.93E-01
9.093187375E0,-4.59E-01,-4.97E-01,-6.31E-01
9.097143760E0,-4.02E-01,-6.51E-01,-6.51E-01
9.101099606E0,-4.40E-01,-6.89E-01,-7.08E-01
9.105055438E0,-3.82E-01,-7.08E-01,-7.65E-01
9.109011515E0,-3.63E-01,-6.70E-01,-7.65E-01
9.112967746E0,-3.82E-01,-6.89E-01,-8.04E-01
9.116924274E0,-2.87E-01,-5.93E-01,-8.04E-01
9.120880736E0,-2.48E-01,-4.78E-01,-7.65E-01
9.124837428E0,-2.10E-01,-3.44E-01,-7.27E-01
9.128793972E0,-1.34E-01,-2.29E-01,-7.08E-01
9.132750972E0,-3.80E-02,-5.70E-02,-6.89E-01
9.136708510E0,-1.91E-02,5.700000376E-2,-6.12E-01
9.140664520E0,5.700000376E-2,1.909500062E-1,-4.97E-01
9.144621597E0,1.909500062E-1,2.680500150E-1,-4.59E-01
9.148578751E0,3.250500262E-1,3.060000241E-1,-4.02E-01
9.152535723E0,4.590000212E-1,3.250500262E-1,-3.63E-01
9.156492338E0,5.170500278E-1,2.479500175E-1,-3.63E-01
9.160448415E0,4.780500233E-1,3.795000166E-2,-4.21E-01
9.164404146E0,3.439500034E-1,-2.29E-01,-4.59E-01
9.168361299E0,2.290500104E-1,-4.97E-01,-5.55E-01
9.172318376E0,3.795000166E-2,-7.85E-01,-6.89E-01
9.176276381E0,-9.50E-02,-1.11E+00,-8.61E-01
9.180233074E0,-2.29E-01,-1.42E+00,-1.19E+00
9.184190381E0,-3.44E-01,-1.78E+00,-1.78E+00
9.188147823E0,-4.78E-01,-2.22E+00,-2.57E+00
9.192104361E0,-6.70E-01,-2.76E+00,-3.29E+00
9.196061208E0,-8.04E-01,-3.39E+00,-4.08E+00
9.200017982E0,-9.95E-01,-4.17E+00,-5.06E+00
9.203974982E0,-1.28E+00,-5.11E+00,-6.03E+00
9.207931982E0,-1.57E+00,-6.22E+00,-6.86E+00
9.211888669E0,-1.80E+00,-7.43E+00,-6.91E+00
9.215845669E0,-2.05E+00,-8.79E+00,-5.30E+00
9.219802592E0,-2.24E+00,-1.02E+01,-2.05E+00
9.223757766E0,-2.76E+00,-1.15E+01,1.339950085E0
9.227714228E0,-3.39E+00,-1.29E+01,3.523050070E0
9.231670920E0,-4.12E+00,-1.45E+01,4.729050159E0
9.235627064E0,-4.77E+00,-1.62E+01,5.323050022E0
9.239583218E0,-5.13E+00,-1.78E+01,5.284950256E0
9.243540141E0,-4.92E+00,-1.93E+01,4.710000038E0
9.247496381E0,-5.07E+00,-2.12E+01,3.772050142E0
9.251453304E0,-5.00E+00,-2.29E+01,2.776050091E0
9.255409996E0,-4.90E+00,-2.40E+01,1.972050071E0
9.259367059E0,-4.75E+00,-2.41E+01,1.282050014E0
9.263323905E0,-4.52E+00,-2.33E+01,7.270500064E-1
9.267280597E0,-4.73E+00,-2.12E+01,5.359500051E-1
9.271237515E0,-4.65E+00,-1.89E+01,3.060000241E-1
9.275194900E0,-4.10E+00,-1.66E+01,0.000000000E0
9.279153208E0,-3.69E+00,-1.48E+01,-3.06E-01
9.283110050E0,-3.77E+00,-1.38E+01,-6.31E-01
9.287066973E0,-4.17E+00,-1.32E+01,-9.76E-01
9.291024435E0,-4.75E+00,-1.29E+01,-1.30E+00
9.294981502E0,-5.32E+00,-1.30E+01,-1.42E+00
9.298939117E0,-5.88E+00,-1.37E+01,-1.32E+00
9.302895732E0,-6.53E+00,-1.51E+01,-8.61E-01
9.306852741E0,-6.91E+00,-1.74E+01,-4.59E-01
9.310809972E0,-6.80E+00,-2.00E+01,-8.04E-01
9.314766895E0,-6.32E+00,-2.25E+01,-2.39E+00
9.318724040E0,-5.78E+00,-2.48E+01,-6.05E+00
9.322681271E0,-4.04E+00,-2.74E+01,-1.25E+01
9.326638117E0,-1.34E+00,-2.97E+01,-1.79E+01
9.330593352E0,4.780500233E-1,-3.05E+01,-1.72E+01
9.334550890E0,2.479500175E-1,-2.87E+01,-1.11E+01
9.338508890E0,-9.76E-01,-2.53E+01,-4.10E+00
9.342463357E0,-1.30E+00,-2.19E+01,3.250500262E-1
9.346419357E0,-1.24E+00,-1.90E+01,2.047950029E0
9.350376280E0,-1.57E+00,-1.66E+01,1.608000040E0
9.354333900E0,-1.84E+00,-1.42E+01,-1.72E-01
9.358291208E0,-2.32E+00,-1.17E+01,-1.84E+00
9.362247823E0,-2.95E+00,-1.01E+01,-2.91E+00
9.366204117E0,-3.12E+00,-9.15E+00,-3.18E+00
9.370160502E0,-3.06E+00,-8.46E+00,-2.81E+00
9.374116732E0,-3.06E+00,-7.95E+00,-1.84E+00
9.378072756E0,-3.33E+00,-7.81E+00,-9.19E-01
9.382028449E0,-3.73E+00,-7.95E+00,-2.87E-01
9.385983141E0,-4.19E+00,-8.00E+00,1.909500062E-1
9.389939054E0,-4.56E+00,-8.18E+00,4.210500121E-1
9.393895208E0,-4.90E+00,-8.48E+00,6.310500503E-1
9.397851900E0,-5.30E+00,-8.75E+00,6.700500250E-1
9.401808237E0,-5.53E+00,-9.02E+00,6.889500618E-1
9.405765006E0,-5.86E+00,-9.00E+00,6.510000229E-1
9.409721622E0,-6.28E+00,-8.87E+00,5.740500093E-1
9.413678607E0,-6.63E+00,-8.66E+00,3.820500076E-1
9.417635761E0,-6.86E+00,-8.33E+00,1.909500062E-1
9.421593068E0,-6.82E+00,-7.95E+00,5.700000376E-2
9.425551463E0,-6.55E+00,-7.51E+00,-1.91E-02
9.429507001E0,-5.84E+00,-7.03E+00,9.495000541E-2
9.433463848E0,-5.00E+00,-6.70E+00,2.100000083E-1
9.437420006E0,-4.14E+00,-6.41E+00,2.479500175E-1
9.441376545E0,-3.43E+00,-6.20E+00,1.720500141E-1
9.445332929E0,-2.85E+00,-6.15E+00,1.339500099E-1
9.449289496E0,-2.39E+00,-6.15E+00,1.140000075E-1
9.453245804E0,-1.97E+00,-6.09E+00,9.495000541E-2
9.457202111E0,-1.57E+00,-6.05E+00,7.605000585E-2
9.461160212E0,-1.21E+00,-6.05E+00,-3.80E-02
9.465117212E0,-8.61E-01,-6.03E+00,-1.53E-01
9.469074289E0,-5.74E-01,-6.03E+00,-3.44E-01
9.473031400E0,-3.06E-01,-6.05E+00,-3.63E-01
9.476987554E0,-5.70E-02,-6.11E+00,-4.59E-01
9.480942862E0,1.339500099E-1,-6.22E+00,-5.17E-01
9.484899256E0,3.439500034E-1,-6.34E+00,-5.36E-01
9.488855333E0,4.590000212E-1,-6.49E+00,-6.12E-01
9.492811872E0,5.550000072E-1,-6.68E+00,-6.89E-01
9.496768867E0,5.929500461E-1,-6.86E+00,-7.65E-01
9.500725482E0,6.889500618E-1,-7.12E+00,-8.04E-01
9.504682021E0,8.610000610E-1,-7.41E+00,-7.85E-01
9.508638670E0,1.014000058E0,-7.74E+00,-8.42E-01
9.512595362E0,1.147950053E0,-8.04E+00,-9.19E-01
9.516552362E0,1.339950085E0,-8.41E+00,-9.57E-01
9.520509833E0,1.492950082E0,-8.77E+00,-1.21E+00
9.524466679E0,1.761000037E0,-9.09E+00,-1.59E+00
9.528423679E0,1.990950108E0,-9.48E+00,-2.09E+00
9.532380472E0,2.221050024E0,-9.80E+00,-2.66E+00
9.536337318E0,2.278050184E0,-1.01E+01,-3.14E+00
9.540294165E0,2.239950180E0,-1.02E+01,-3.62E+00
9.544251098E0,2.202000141E0,-1.03E+01,-4.02E+00
9.548208636E0,2.125050068E0,-1.04E+01,-4.23E+00
9.552165252E0,1.990950108E0,-1.05E+01,-4.19E+00
9.556121429E0,1.723050117E0,-1.06E+01,-3.98E+00
9.560077352E0,1.531050086E0,-1.06E+01,-3.64E+00
9.564033506E0,1.378050089E0,-1.03E+01,-3.26E+00
9.567990021E0,1.243950009E0,-9.92E+00,-2.81E+00
9.571946021E0,1.053000093E0,-9.50E+00,-2.37E+00
9.575902175E0,9.949500561E-1,-9.11E+00,-2.01E+00
9.579859122E0,8.040000200E-1,-8.81E+00,-1.63E+00
9.583815891E0,5.929500461E-1,-8.64E+00,-1.24E+00
9.587772506E0,4.780500233E-1,-8.66E+00,-1.01E+00
9.591729353E0,3.630000055E-1,-8.71E+00,-7.27E-01
9.595686276E0,1.909500062E-1,-8.87E+00,-5.36E-01
9.599643199E0,1.530000120E-1,-8.98E+00,-4.02E-01
9.603600180E0,2.100000083E-1,-9.06E+00,-2.68E-01
9.607557257E0,2.290500104E-1,-9.04E+00,-2.29E-01
9.611514103E0,3.250500262E-1,-8.98E+00,-2.68E-01
9.615470867E0,4.780500233E-1,-8.87E+00,-3.63E-01
9.619428252E0,6.700500250E-1,-8.73E+00,-5.17E-01
9.623385636E0,7.650000453E-1,-8.58E+00,-7.46E-01
9.627342770E0,7.849500179E-1,-8.43E+00,-1.01E+00
9.631299539E0,8.040000200E-1,-8.18E+00,-1.46E+00
9.635256693E0,7.080000043E-1,-7.95E+00,-1.84E+00
